"success","timeout","failed_images","failed_audio","failed_video","trial_type","trial_index","time_elapsed","internal_node_id","subject_id","study_id","session_id","rt","stimulus","response","task","correct_response","exemplar_ID","category","difficulty","phase","correct","bonus","trial_bonus"
"true","false","[]","[]","[]","preload","0","1","0.0-0.0","652c087ba639f4cb5c2974ce","65801700b94e79b0c0532bf4","6580192c8efab1fba4ec81ed","","","","","","","","","","","",""
"","","","","","html-keyboard-response","1","4145","0.0-1.0","652c087ba639f4cb5c2974ce","65801700b94e79b0c0532bf4","6580192c8efab1fba4ec81ed","4142","Welcome to the Category Matching experiment! Press any key to continue."," ","welcome","","","","","","","",""
"","","","","","html-keyboard-response","2","20188","0.0-2.0","652c087ba639f4cb5c2974ce","65801700b94e79b0c0532bf4","6580192c8efab1fba4ec81ed","16041","
            <p>You will be shown movies. Each movie contains a shape that initially is hidden and is gradually revealed. 
            <p> While you watch a shape being revealed, you have to choose which shape from the two below it is most similar to : </p>
            <div class=""container"">
                <div class=""photos"">
                    <img class=""image"" src=./stimuli//pack_noise_shapes_3/cat_1/prototype_1.png>
                    <span class=""word""><b>Press left arrow key to choose this shape.</b></span>
                </div>
                <div class=""photos"">
                    <img class=""image"" src=./stimuli//pack_noise_shapes_3/cat_2/prototype_2.png >
                    <div class=""word""><b>Press right arrow key to choose this shape.</b></div>
                </div>
            </div>
            <br>
            <p>Press any key to continue.</p>
            "," ","introduction_1","","","","","","","",""
"","","","","","html-keyboard-response","3","34431","0.0-3.0","652c087ba639f4cb5c2974ce","65801700b94e79b0c0532bf4","6580192c8efab1fba4ec81ed","14240","
            <p> After you choose, the screen will show you whether you were correct or not.</p>
            <p><b>You will receive a bonus payment for each correct answer! The faster you answer the higher the bonus will be!</b></p>
            <p> So you can increase your bonus by guessing as quickly and accurately as possible.</p>
            <p><b>You will lose $0.1 from your bonus payment for each incorrect answer! The bonus can not become less than $0.</b> </p>
            <p>Press any key to continue.</p>
    "," ","introduction_2","","","","","","","",""
"","","","","","html-keyboard-response","4","40572","0.0-4.0","652c087ba639f4cb5c2974ce","65801700b94e79b0c0532bf4","6580192c8efab1fba4ec81ed","6140","
            <p> <b>The first 10 shapes are a practice round that will not count towards your bonus payment.</b></p>
            <p> You will be notified when practice finishes and the test begins. </p>
            <p> Press any key to begin the practice round.</p>
            "," ","introduction_3","","","","","","","",""
"","","","","","html-keyboard-response","5","45674","0.0-5.0-0.0","652c087ba639f4cb5c2974ce","65801700b94e79b0c0532bf4","6580192c8efab1fba4ec81ed","5099","
            
        <div style=""text-align: center; position: fixed; top: 5vh; left: 40vw;"">
            <div style=""margin:0 auto; width: 20vw; top: 8vh; font-size: 2vw""> 
            <font color=""green""> Bonus : $0 </font>
            </div>
        </div>
    
            <p> Please press any key to continue to the next movie.</p>
            <p> Remember your choices : <p>
            <div class=""container"">
                <div class=""photos"">
                    <img class=""image"" src=./stimuli//pack_noise_shapes_3/cat_1/prototype_1.png>
                    <span class=""word""><b>Press left arrow key if the shape looks like this one.</b></span>
                </div>
                <div class=""photos"">
                    <img class=""image"" src=./stimuli//pack_noise_shapes_3/cat_2/prototype_2.png>
                    <div class=""word""><b>Press right arrow key if the shape looks like this one.</b></div>
                </div>
            </div>
        "," ","ITI","","","","","","","",""
"","","","","","html-keyboard-response","6","48235","0.0-5.0-1.0","652c087ba639f4cb5c2974ce","65801700b94e79b0c0532bf4","6580192c8efab1fba4ec81ed","2554","./stimuli//pack_noise_shapes_3/cat_2/diff_1/ex_2_1_3.mp4","arrowleft","response","ArrowRight","3","2","1","train","false","",""
"","","","","","html-keyboard-response","7","53245","0.0-5.0-2.0","652c087ba639f4cb5c2974ce","65801700b94e79b0c0532bf4","6580192c8efab1fba4ec81ed","null","<p> <font color=""red"" size=""5vw""> Wrong category! </font> </p>","null","feedback","","","","","","","0","0"
"","","","","","html-keyboard-response","8","57741","0.0-5.0-0.1","652c087ba639f4cb5c2974ce","65801700b94e79b0c0532bf4","6580192c8efab1fba4ec81ed","4494","
            
        <div style=""text-align: center; position: fixed; top: 5vh; left: 40vw;"">
            <div style=""margin:0 auto; width: 20vw; top: 8vh; font-size: 2vw""> 
            <font color=""green""> Bonus : $0 </font>
            </div>
        </div>
    
            <p> Please press any key to continue to the next movie.</p>
            <p> Remember your choices : <p>
            <div class=""container"">
                <div class=""photos"">
                    <img class=""image"" src=./stimuli//pack_noise_shapes_3/cat_1/prototype_1.png>
                    <span class=""word""><b>Press left arrow key if the shape looks like this one.</b></span>
                </div>
                <div class=""photos"">
                    <img class=""image"" src=./stimuli//pack_noise_shapes_3/cat_2/prototype_2.png>
                    <div class=""word""><b>Press right arrow key if the shape looks like this one.</b></div>
                </div>
            </div>
        "," ","ITI","","","","","","","",""
"","","","","","html-keyboard-response","9","60112","0.0-5.0-1.1","652c087ba639f4cb5c2974ce","65801700b94e79b0c0532bf4","6580192c8efab1fba4ec81ed","2368","./stimuli//pack_noise_shapes_3/cat_1/diff_1/ex_1_1_13.mp4","arrowleft","response","ArrowLeft","13","1","1","train","true","",""
"","","","","","html-keyboard-response","10","61616","0.0-5.0-2.1","652c087ba639f4cb5c2974ce","65801700b94e79b0c0532bf4","6580192c8efab1fba4ec81ed","null","<p> <font color=""green"" size=""5vw""> Correct category! </font> </p>","null","feedback","","","","","","","0","0"
"","","","","","html-keyboard-response","11","63072","0.0-5.0-0.2","652c087ba639f4cb5c2974ce","65801700b94e79b0c0532bf4","6580192c8efab1fba4ec81ed","1455","
            
        <div style=""text-align: center; position: fixed; top: 5vh; left: 40vw;"">
            <div style=""margin:0 auto; width: 20vw; top: 8vh; font-size: 2vw""> 
            <font color=""green""> Bonus : $0 </font>
            </div>
        </div>
    
            <p> Please press any key to continue to the next movie.</p>
            <p> Remember your choices : <p>
            <div class=""container"">
                <div class=""photos"">
                    <img class=""image"" src=./stimuli//pack_noise_shapes_3/cat_1/prototype_1.png>
                    <span class=""word""><b>Press left arrow key if the shape looks like this one.</b></span>
                </div>
                <div class=""photos"">
                    <img class=""image"" src=./stimuli//pack_noise_shapes_3/cat_2/prototype_2.png>
                    <div class=""word""><b>Press right arrow key if the shape looks like this one.</b></div>
                </div>
            </div>
        "," ","ITI","","","","","","","",""
"","","","","","html-keyboard-response","12","65661","0.0-5.0-1.2","652c087ba639f4cb5c2974ce","65801700b94e79b0c0532bf4","6580192c8efab1fba4ec81ed","2586","./stimuli//pack_noise_shapes_3/cat_1/diff_1/ex_1_1_4.mp4","arrowleft","response","ArrowLeft","4","1","1","train","true","",""
"","","","","","html-keyboard-response","13","67165","0.0-5.0-2.2","652c087ba639f4cb5c2974ce","65801700b94e79b0c0532bf4","6580192c8efab1fba4ec81ed","null","<p> <font color=""green"" size=""5vw""> Correct category! </font> </p>","null","feedback","","","","","","","0","0"
"","","","","","html-keyboard-response","14","68352","0.0-5.0-0.3","652c087ba639f4cb5c2974ce","65801700b94e79b0c0532bf4","6580192c8efab1fba4ec81ed","1185","
            
        <div style=""text-align: center; position: fixed; top: 5vh; left: 40vw;"">
            <div style=""margin:0 auto; width: 20vw; top: 8vh; font-size: 2vw""> 
            <font color=""green""> Bonus : $0 </font>
            </div>
        </div>
    
            <p> Please press any key to continue to the next movie.</p>
            <p> Remember your choices : <p>
            <div class=""container"">
                <div class=""photos"">
                    <img class=""image"" src=./stimuli//pack_noise_shapes_3/cat_1/prototype_1.png>
                    <span class=""word""><b>Press left arrow key if the shape looks like this one.</b></span>
                </div>
                <div class=""photos"">
                    <img class=""image"" src=./stimuli//pack_noise_shapes_3/cat_2/prototype_2.png>
                    <div class=""word""><b>Press right arrow key if the shape looks like this one.</b></div>
                </div>
            </div>
        "," ","ITI","","","","","","","",""
"","","","","","html-keyboard-response","15","70547","0.0-5.0-1.3","652c087ba639f4cb5c2974ce","65801700b94e79b0c0532bf4","6580192c8efab1fba4ec81ed","2191","./stimuli//pack_noise_shapes_3/cat_2/diff_2/ex_2_2_6.mp4","arrowright","response","ArrowRight","6","2","2","train","true","",""
"","","","","","html-keyboard-response","16","72059","0.0-5.0-2.3","652c087ba639f4cb5c2974ce","65801700b94e79b0c0532bf4","6580192c8efab1fba4ec81ed","null","<p> <font color=""green"" size=""5vw""> Correct category! </font> </p>","null","feedback","","","","","","","0","0"
"","","","","","html-keyboard-response","17","72607","0.0-5.0-0.4","652c087ba639f4cb5c2974ce","65801700b94e79b0c0532bf4","6580192c8efab1fba4ec81ed","546","
            
        <div style=""text-align: center; position: fixed; top: 5vh; left: 40vw;"">
            <div style=""margin:0 auto; width: 20vw; top: 8vh; font-size: 2vw""> 
            <font color=""green""> Bonus : $0 </font>
            </div>
        </div>
    
            <p> Please press any key to continue to the next movie.</p>
            <p> Remember your choices : <p>
            <div class=""container"">
                <div class=""photos"">
                    <img class=""image"" src=./stimuli//pack_noise_shapes_3/cat_1/prototype_1.png>
                    <span class=""word""><b>Press left arrow key if the shape looks like this one.</b></span>
                </div>
                <div class=""photos"">
                    <img class=""image"" src=./stimuli//pack_noise_shapes_3/cat_2/prototype_2.png>
                    <div class=""word""><b>Press right arrow key if the shape looks like this one.</b></div>
                </div>
            </div>
        "," ","ITI","","","","","","","",""
"","","","","","html-keyboard-response","18","74707","0.0-5.0-1.4","652c087ba639f4cb5c2974ce","65801700b94e79b0c0532bf4","6580192c8efab1fba4ec81ed","2096","./stimuli//pack_noise_shapes_3/cat_1/diff_1/ex_1_1_15.mp4","arrowleft","response","ArrowLeft","15","1","1","train","true","",""
"","","","","","html-keyboard-response","19","76224","0.0-5.0-2.4","652c087ba639f4cb5c2974ce","65801700b94e79b0c0532bf4","6580192c8efab1fba4ec81ed","null","<p> <font color=""green"" size=""5vw""> Correct category! </font> </p>","null","feedback","","","","","","","0","0"
"","","","","","html-keyboard-response","20","76715","0.0-5.0-0.5","652c087ba639f4cb5c2974ce","65801700b94e79b0c0532bf4","6580192c8efab1fba4ec81ed","488","
            
        <div style=""text-align: center; position: fixed; top: 5vh; left: 40vw;"">
            <div style=""margin:0 auto; width: 20vw; top: 8vh; font-size: 2vw""> 
            <font color=""green""> Bonus : $0 </font>
            </div>
        </div>
    
            <p> Please press any key to continue to the next movie.</p>
            <p> Remember your choices : <p>
            <div class=""container"">
                <div class=""photos"">
                    <img class=""image"" src=./stimuli//pack_noise_shapes_3/cat_1/prototype_1.png>
                    <span class=""word""><b>Press left arrow key if the shape looks like this one.</b></span>
                </div>
                <div class=""photos"">
                    <img class=""image"" src=./stimuli//pack_noise_shapes_3/cat_2/prototype_2.png>
                    <div class=""word""><b>Press right arrow key if the shape looks like this one.</b></div>
                </div>
            </div>
        "," ","ITI","","","","","","","",""
"","","","","","html-keyboard-response","21","79331","0.0-5.0-1.5","652c087ba639f4cb5c2974ce","65801700b94e79b0c0532bf4","6580192c8efab1fba4ec81ed","2612","./stimuli//pack_noise_shapes_3/cat_1/diff_2/ex_1_2_4.mp4","arrowright","response","ArrowLeft","4","1","2","train","false","",""
"","","","","","html-keyboard-response","22","84344","0.0-5.0-2.5","652c087ba639f4cb5c2974ce","65801700b94e79b0c0532bf4","6580192c8efab1fba4ec81ed","null","<p> <font color=""red"" size=""5vw""> Wrong category! </font> </p>","null","feedback","","","","","","","0","0"
"","","","","","html-keyboard-response","23","85560","0.0-5.0-0.6","652c087ba639f4cb5c2974ce","65801700b94e79b0c0532bf4","6580192c8efab1fba4ec81ed","1213","
            
        <div style=""text-align: center; position: fixed; top: 5vh; left: 40vw;"">
            <div style=""margin:0 auto; width: 20vw; top: 8vh; font-size: 2vw""> 
            <font color=""green""> Bonus : $0 </font>
            </div>
        </div>
    
            <p> Please press any key to continue to the next movie.</p>
            <p> Remember your choices : <p>
            <div class=""container"">
                <div class=""photos"">
                    <img class=""image"" src=./stimuli//pack_noise_shapes_3/cat_1/prototype_1.png>
                    <span class=""word""><b>Press left arrow key if the shape looks like this one.</b></span>
                </div>
                <div class=""photos"">
                    <img class=""image"" src=./stimuli//pack_noise_shapes_3/cat_2/prototype_2.png>
                    <div class=""word""><b>Press right arrow key if the shape looks like this one.</b></div>
                </div>
            </div>
        "," ","ITI","","","","","","","",""
"","","","","","html-keyboard-response","24","88263","0.0-5.0-1.6","652c087ba639f4cb5c2974ce","65801700b94e79b0c0532bf4","6580192c8efab1fba4ec81ed","2699","./stimuli//pack_noise_shapes_3/cat_1/diff_2/ex_1_2_6.mp4","arrowleft","response","ArrowLeft","6","1","2","train","true","",""
"","","","","","html-keyboard-response","25","89769","0.0-5.0-2.6","652c087ba639f4cb5c2974ce","65801700b94e79b0c0532bf4","6580192c8efab1fba4ec81ed","null","<p> <font color=""green"" size=""5vw""> Correct category! </font> </p>","null","feedback","","","","","","","0","0"
"","","","","","html-keyboard-response","26","90353","0.0-5.0-0.7","652c087ba639f4cb5c2974ce","65801700b94e79b0c0532bf4","6580192c8efab1fba4ec81ed","581","
            
        <div style=""text-align: center; position: fixed; top: 5vh; left: 40vw;"">
            <div style=""margin:0 auto; width: 20vw; top: 8vh; font-size: 2vw""> 
            <font color=""green""> Bonus : $0 </font>
            </div>
        </div>
    
            <p> Please press any key to continue to the next movie.</p>
            <p> Remember your choices : <p>
            <div class=""container"">
                <div class=""photos"">
                    <img class=""image"" src=./stimuli//pack_noise_shapes_3/cat_1/prototype_1.png>
                    <span class=""word""><b>Press left arrow key if the shape looks like this one.</b></span>
                </div>
                <div class=""photos"">
                    <img class=""image"" src=./stimuli//pack_noise_shapes_3/cat_2/prototype_2.png>
                    <div class=""word""><b>Press right arrow key if the shape looks like this one.</b></div>
                </div>
            </div>
        "," ","ITI","","","","","","","",""
"","","","","","html-keyboard-response","27","92606","0.0-5.0-1.7","652c087ba639f4cb5c2974ce","65801700b94e79b0c0532bf4","6580192c8efab1fba4ec81ed","2250","./stimuli//pack_noise_shapes_3/cat_2/diff_1/ex_2_1_4.mp4","arrowright","response","ArrowRight","4","2","1","train","true","",""
"","","","","","html-keyboard-response","28","94120","0.0-5.0-2.7","652c087ba639f4cb5c2974ce","65801700b94e79b0c0532bf4","6580192c8efab1fba4ec81ed","null","<p> <font color=""green"" size=""5vw""> Correct category! </font> </p>","null","feedback","","","","","","","0","0"
"","","","","","html-keyboard-response","29","94558","0.0-5.0-0.8","652c087ba639f4cb5c2974ce","65801700b94e79b0c0532bf4","6580192c8efab1fba4ec81ed","436","
            
        <div style=""text-align: center; position: fixed; top: 5vh; left: 40vw;"">
            <div style=""margin:0 auto; width: 20vw; top: 8vh; font-size: 2vw""> 
            <font color=""green""> Bonus : $0 </font>
            </div>
        </div>
    
            <p> Please press any key to continue to the next movie.</p>
            <p> Remember your choices : <p>
            <div class=""container"">
                <div class=""photos"">
                    <img class=""image"" src=./stimuli//pack_noise_shapes_3/cat_1/prototype_1.png>
                    <span class=""word""><b>Press left arrow key if the shape looks like this one.</b></span>
                </div>
                <div class=""photos"">
                    <img class=""image"" src=./stimuli//pack_noise_shapes_3/cat_2/prototype_2.png>
                    <div class=""word""><b>Press right arrow key if the shape looks like this one.</b></div>
                </div>
            </div>
        "," ","ITI","","","","","","","",""
"","","","","","html-keyboard-response","30","96998","0.0-5.0-1.8","652c087ba639f4cb5c2974ce","65801700b94e79b0c0532bf4","6580192c8efab1fba4ec81ed","2435","./stimuli//pack_noise_shapes_3/cat_2/diff_2/ex_2_2_5.mp4","arrowright","response","ArrowRight","5","2","2","train","true","",""
"","","","","","html-keyboard-response","31","98506","0.0-5.0-2.8","652c087ba639f4cb5c2974ce","65801700b94e79b0c0532bf4","6580192c8efab1fba4ec81ed","null","<p> <font color=""green"" size=""5vw""> Correct category! </font> </p>","null","feedback","","","","","","","0","0"
"","","","","","html-keyboard-response","32","98889","0.0-5.0-0.9","652c087ba639f4cb5c2974ce","65801700b94e79b0c0532bf4","6580192c8efab1fba4ec81ed","381","
            
        <div style=""text-align: center; position: fixed; top: 5vh; left: 40vw;"">
            <div style=""margin:0 auto; width: 20vw; top: 8vh; font-size: 2vw""> 
            <font color=""green""> Bonus : $0 </font>
            </div>
        </div>
    
            <p> Please press any key to continue to the next movie.</p>
            <p> Remember your choices : <p>
            <div class=""container"">
                <div class=""photos"">
                    <img class=""image"" src=./stimuli//pack_noise_shapes_3/cat_1/prototype_1.png>
                    <span class=""word""><b>Press left arrow key if the shape looks like this one.</b></span>
                </div>
                <div class=""photos"">
                    <img class=""image"" src=./stimuli//pack_noise_shapes_3/cat_2/prototype_2.png>
                    <div class=""word""><b>Press right arrow key if the shape looks like this one.</b></div>
                </div>
            </div>
        "," ","ITI","","","","","","","",""
"","","","","","html-keyboard-response","33","101588","0.0-5.0-1.9","652c087ba639f4cb5c2974ce","65801700b94e79b0c0532bf4","6580192c8efab1fba4ec81ed","2695","./stimuli//pack_noise_shapes_3/cat_2/diff_1/ex_2_1_12.mp4","arrowright","response","ArrowRight","12","2","1","train","true","",""
"","","","","","html-keyboard-response","34","103104","0.0-5.0-2.9","652c087ba639f4cb5c2974ce","65801700b94e79b0c0532bf4","6580192c8efab1fba4ec81ed","null","<p> <font color=""green"" size=""5vw""> Correct category! </font> </p>","null","feedback","","","","","","","0","0"
"","","","","","html-keyboard-response","35","103399","0.0-6.0","652c087ba639f4cb5c2974ce","65801700b94e79b0c0532bf4","6580192c8efab1fba4ec81ed","294","
            <b> <p> The practice round has finished.</p>
            <b> <p> For the rest of the experiment you will receive a bonus payment for each correct answer, which will be higher the faster you answer!</b></p>
            <b> <p> Also you will lose $0.1 from your bonus payment for each incorrect answer!</p>
            <p> Press any key to begin the test. </p>
            "," ","intermission","","","","","","","",""
"","","","","","html-keyboard-response","36","105207","0.0-7.0-0.0","652c087ba639f4cb5c2974ce","65801700b94e79b0c0532bf4","6580192c8efab1fba4ec81ed","1806","
            
        <div style=""text-align: center; position: fixed; top: 5vh; left: 40vw;"">
            <div style=""margin:0 auto; width: 20vw; top: 8vh; font-size: 2vw""> 
            <font color=""green""> Bonus : $0 </font>
            </div>
        </div>
    
            <p> Please press any key to continue to the next movie.</p>
            <p> Remember your choices : <p>
            <div class=""container"">
                <div class=""photos"">
                    <img class=""image"" src=./stimuli//pack_noise_shapes_3/cat_1/prototype_1.png>
                    <span class=""word""><b>Press left arrow key if the shape looks like this one.</b></span>
                </div>
                <div class=""photos"">
                    <img class=""image"" src=./stimuli//pack_noise_shapes_3/cat_2/prototype_2.png>
                    <div class=""word""><b>Press right arrow key if the shape looks like this one.</b></div>
                </div>
            </div>
        "," ","ITI","","","","","","","",""
"","","","","","html-keyboard-response","37","108024","0.0-7.0-1.0","652c087ba639f4cb5c2974ce","65801700b94e79b0c0532bf4","6580192c8efab1fba4ec81ed","2812","./stimuli//pack_noise_shapes_3/cat_2/diff_1/ex_2_1_7.mp4","arrowright","response","ArrowRight","7","2","1","test","true","",""
"","","","","","html-keyboard-response","38","109529","0.0-7.0-2.0","652c087ba639f4cb5c2974ce","65801700b94e79b0c0532bf4","6580192c8efab1fba4ec81ed","null","<p> <font color=""green"" size=""5vw""> Correct match! </font> <br> <br> <font color=""green"" size=""8vw""> + $0.06 </font> </p>","null","feedback","","","","","","","0.06","0.06"
"","","","","","html-keyboard-response","39","110406","0.0-7.1-0.1","652c087ba639f4cb5c2974ce","65801700b94e79b0c0532bf4","6580192c8efab1fba4ec81ed","873","
            
        <div style=""text-align: center; position: fixed; top: 5vh; left: 40vw;"">
            <div style=""margin:0 auto; width: 20vw; top: 8vh; font-size: 2vw""> 
            <font color=""green""> Bonus : $0.06 </font>
            </div>
        </div>
    
            <p> Please press any key to continue to the next movie.</p>
            <p> Remember your choices : <p>
            <div class=""container"">
                <div class=""photos"">
                    <img class=""image"" src=./stimuli//pack_noise_shapes_3/cat_1/prototype_1.png>
                    <span class=""word""><b>Press left arrow key if the shape looks like this one.</b></span>
                </div>
                <div class=""photos"">
                    <img class=""image"" src=./stimuli//pack_noise_shapes_3/cat_2/prototype_2.png>
                    <div class=""word""><b>Press right arrow key if the shape looks like this one.</b></div>
                </div>
            </div>
        "," ","ITI","","","","","","","",""
"","","","","","html-keyboard-response","40","113042","0.0-7.1-1.1","652c087ba639f4cb5c2974ce","65801700b94e79b0c0532bf4","6580192c8efab1fba4ec81ed","2632","./stimuli//pack_noise_shapes_3/cat_1/diff_1/ex_1_1_6.mp4","arrowleft","response","ArrowLeft","6","1","1","test","true","",""
"","","","","","html-keyboard-response","41","114555","0.0-7.1-2.1","652c087ba639f4cb5c2974ce","65801700b94e79b0c0532bf4","6580192c8efab1fba4ec81ed","null","<p> <font color=""green"" size=""5vw""> Correct match! </font> <br> <br> <font color=""green"" size=""8vw""> + $0.06 </font> </p>","null","feedback","","","","","","","0.12","0.06"
"","","","","","html-keyboard-response","42","116020","0.0-7.2-0.2","652c087ba639f4cb5c2974ce","65801700b94e79b0c0532bf4","6580192c8efab1fba4ec81ed","1451","
            
        <div style=""text-align: center; position: fixed; top: 5vh; left: 40vw;"">
            <div style=""margin:0 auto; width: 20vw; top: 8vh; font-size: 2vw""> 
            <font color=""green""> Bonus : $0.12 </font>
            </div>
        </div>
    
            <p> Please press any key to continue to the next movie.</p>
            <p> Remember your choices : <p>
            <div class=""container"">
                <div class=""photos"">
                    <img class=""image"" src=./stimuli//pack_noise_shapes_3/cat_1/prototype_1.png>
                    <span class=""word""><b>Press left arrow key if the shape looks like this one.</b></span>
                </div>
                <div class=""photos"">
                    <img class=""image"" src=./stimuli//pack_noise_shapes_3/cat_2/prototype_2.png>
                    <div class=""word""><b>Press right arrow key if the shape looks like this one.</b></div>
                </div>
            </div>
        "," ","ITI","","","","","","","",""
"","","","","","html-keyboard-response","43","118506","0.0-7.2-1.2","652c087ba639f4cb5c2974ce","65801700b94e79b0c0532bf4","6580192c8efab1fba4ec81ed","2482","./stimuli//pack_noise_shapes_3/cat_2/diff_1/ex_2_1_8.mp4","arrowright","response","ArrowRight","8","2","1","test","true","",""
"","","","","","html-keyboard-response","44","120017","0.0-7.2-2.2","652c087ba639f4cb5c2974ce","65801700b94e79b0c0532bf4","6580192c8efab1fba4ec81ed","null","<p> <font color=""green"" size=""5vw""> Correct match! </font> <br> <br> <font color=""green"" size=""8vw""> + $0.06 </font> </p>","null","feedback","","","","","","","0.18","0.06"
"","","","","","html-keyboard-response","45","120474","0.0-7.3-0.3","652c087ba639f4cb5c2974ce","65801700b94e79b0c0532bf4","6580192c8efab1fba4ec81ed","454","
            
        <div style=""text-align: center; position: fixed; top: 5vh; left: 40vw;"">
            <div style=""margin:0 auto; width: 20vw; top: 8vh; font-size: 2vw""> 
            <font color=""green""> Bonus : $0.18 </font>
            </div>
        </div>
    
            <p> Please press any key to continue to the next movie.</p>
            <p> Remember your choices : <p>
            <div class=""container"">
                <div class=""photos"">
                    <img class=""image"" src=./stimuli//pack_noise_shapes_3/cat_1/prototype_1.png>
                    <span class=""word""><b>Press left arrow key if the shape looks like this one.</b></span>
                </div>
                <div class=""photos"">
                    <img class=""image"" src=./stimuli//pack_noise_shapes_3/cat_2/prototype_2.png>
                    <div class=""word""><b>Press right arrow key if the shape looks like this one.</b></div>
                </div>
            </div>
        "," ","ITI","","","","","","","",""
"","","","","","html-keyboard-response","46","122614","0.0-7.3-1.3","652c087ba639f4cb5c2974ce","65801700b94e79b0c0532bf4","6580192c8efab1fba4ec81ed","2136","./stimuli//pack_noise_shapes_3/cat_1/diff_1/ex_1_1_8.mp4","arrowleft","response","ArrowLeft","8","1","1","test","true","",""
"","","","","","html-keyboard-response","47","124119","0.0-7.3-2.3","652c087ba639f4cb5c2974ce","65801700b94e79b0c0532bf4","6580192c8efab1fba4ec81ed","null","<p> <font color=""green"" size=""5vw""> Correct match! </font> <br> <br> <font color=""green"" size=""8vw""> + $0.07 </font> </p>","null","feedback","","","","","","","0.25","0.07"
"","","","","","html-keyboard-response","48","124735","0.0-7.4-0.4","652c087ba639f4cb5c2974ce","65801700b94e79b0c0532bf4","6580192c8efab1fba4ec81ed","613","
            
        <div style=""text-align: center; position: fixed; top: 5vh; left: 40vw;"">
            <div style=""margin:0 auto; width: 20vw; top: 8vh; font-size: 2vw""> 
            <font color=""green""> Bonus : $0.25 </font>
            </div>
        </div>
    
            <p> Please press any key to continue to the next movie.</p>
            <p> Remember your choices : <p>
            <div class=""container"">
                <div class=""photos"">
                    <img class=""image"" src=./stimuli//pack_noise_shapes_3/cat_1/prototype_1.png>
                    <span class=""word""><b>Press left arrow key if the shape looks like this one.</b></span>
                </div>
                <div class=""photos"">
                    <img class=""image"" src=./stimuli//pack_noise_shapes_3/cat_2/prototype_2.png>
                    <div class=""word""><b>Press right arrow key if the shape looks like this one.</b></div>
                </div>
            </div>
        "," ","ITI","","","","","","","",""
"","","","","","html-keyboard-response","49","126790","0.0-7.4-1.4","652c087ba639f4cb5c2974ce","65801700b94e79b0c0532bf4","6580192c8efab1fba4ec81ed","2053","./stimuli//pack_noise_shapes_3/cat_2/diff_1/ex_2_1_14.mp4","arrowright","response","ArrowRight","14","2","1","test","true","",""
"","","","","","html-keyboard-response","50","128298","0.0-7.4-2.4","652c087ba639f4cb5c2974ce","65801700b94e79b0c0532bf4","6580192c8efab1fba4ec81ed","null","<p> <font color=""green"" size=""5vw""> Correct match! </font> <br> <br> <font color=""green"" size=""8vw""> + $0.07 </font> </p>","null","feedback","","","","","","","0.32","0.07"
"","","","","","html-keyboard-response","51","128605","0.0-7.5-0.5","652c087ba639f4cb5c2974ce","65801700b94e79b0c0532bf4","6580192c8efab1fba4ec81ed","304","
            
        <div style=""text-align: center; position: fixed; top: 5vh; left: 40vw;"">
            <div style=""margin:0 auto; width: 20vw; top: 8vh; font-size: 2vw""> 
            <font color=""green""> Bonus : $0.32 </font>
            </div>
        </div>
    
            <p> Please press any key to continue to the next movie.</p>
            <p> Remember your choices : <p>
            <div class=""container"">
                <div class=""photos"">
                    <img class=""image"" src=./stimuli//pack_noise_shapes_3/cat_1/prototype_1.png>
                    <span class=""word""><b>Press left arrow key if the shape looks like this one.</b></span>
                </div>
                <div class=""photos"">
                    <img class=""image"" src=./stimuli//pack_noise_shapes_3/cat_2/prototype_2.png>
                    <div class=""word""><b>Press right arrow key if the shape looks like this one.</b></div>
                </div>
            </div>
        "," ","ITI","","","","","","","",""
"","","","","","html-keyboard-response","52","130822","0.0-7.5-1.5","652c087ba639f4cb5c2974ce","65801700b94e79b0c0532bf4","6580192c8efab1fba4ec81ed","2213","./stimuli//pack_noise_shapes_3/cat_2/diff_2/ex_2_2_16.mp4","arrowright","response","ArrowRight","16","2","2","test","true","",""
"","","","","","html-keyboard-response","53","132338","0.0-7.5-2.5","652c087ba639f4cb5c2974ce","65801700b94e79b0c0532bf4","6580192c8efab1fba4ec81ed","null","<p> <font color=""green"" size=""5vw""> Correct match! </font> <br> <br> <font color=""green"" size=""8vw""> + $0.06 </font> </p>","null","feedback","","","","","","","0.38","0.06"
"","","","","","html-keyboard-response","54","132604","0.0-7.6-0.6","652c087ba639f4cb5c2974ce","65801700b94e79b0c0532bf4","6580192c8efab1fba4ec81ed","264","
            
        <div style=""text-align: center; position: fixed; top: 5vh; left: 40vw;"">
            <div style=""margin:0 auto; width: 20vw; top: 8vh; font-size: 2vw""> 
            <font color=""green""> Bonus : $0.38 </font>
            </div>
        </div>
    
            <p> Please press any key to continue to the next movie.</p>
            <p> Remember your choices : <p>
            <div class=""container"">
                <div class=""photos"">
                    <img class=""image"" src=./stimuli//pack_noise_shapes_3/cat_1/prototype_1.png>
                    <span class=""word""><b>Press left arrow key if the shape looks like this one.</b></span>
                </div>
                <div class=""photos"">
                    <img class=""image"" src=./stimuli//pack_noise_shapes_3/cat_2/prototype_2.png>
                    <div class=""word""><b>Press right arrow key if the shape looks like this one.</b></div>
                </div>
            </div>
        "," ","ITI","","","","","","","",""
"","","","","","html-keyboard-response","55","135175","0.0-7.6-1.6","652c087ba639f4cb5c2974ce","65801700b94e79b0c0532bf4","6580192c8efab1fba4ec81ed","2567","./stimuli//pack_noise_shapes_3/cat_1/diff_2/ex_1_2_7.mp4","arrowleft","response","ArrowLeft","7","1","2","test","true","",""
"","","","","","html-keyboard-response","56","136691","0.0-7.6-2.6","652c087ba639f4cb5c2974ce","65801700b94e79b0c0532bf4","6580192c8efab1fba4ec81ed","null","<p> <font color=""green"" size=""5vw""> Correct match! </font> <br> <br> <font color=""green"" size=""8vw""> + $0.06 </font> </p>","null","feedback","","","","","","","0.44","0.06"
"","","","","","html-keyboard-response","57","137821","0.0-7.7-0.7","652c087ba639f4cb5c2974ce","65801700b94e79b0c0532bf4","6580192c8efab1fba4ec81ed","1127","
            
        <div style=""text-align: center; position: fixed; top: 5vh; left: 40vw;"">
            <div style=""margin:0 auto; width: 20vw; top: 8vh; font-size: 2vw""> 
            <font color=""green""> Bonus : $0.44 </font>
            </div>
        </div>
    
            <p> Please press any key to continue to the next movie.</p>
            <p> Remember your choices : <p>
            <div class=""container"">
                <div class=""photos"">
                    <img class=""image"" src=./stimuli//pack_noise_shapes_3/cat_1/prototype_1.png>
                    <span class=""word""><b>Press left arrow key if the shape looks like this one.</b></span>
                </div>
                <div class=""photos"">
                    <img class=""image"" src=./stimuli//pack_noise_shapes_3/cat_2/prototype_2.png>
                    <div class=""word""><b>Press right arrow key if the shape looks like this one.</b></div>
                </div>
            </div>
        "," ","ITI","","","","","","","",""
"","","","","","html-keyboard-response","58","139851","0.0-7.7-1.7","652c087ba639f4cb5c2974ce","65801700b94e79b0c0532bf4","6580192c8efab1fba4ec81ed","2026","./stimuli//pack_noise_shapes_3/cat_2/diff_2/ex_2_2_15.mp4","arrowright","response","ArrowRight","15","2","2","test","true","",""
"","","","","","html-keyboard-response","59","141368","0.0-7.7-2.7","652c087ba639f4cb5c2974ce","65801700b94e79b0c0532bf4","6580192c8efab1fba4ec81ed","null","<p> <font color=""green"" size=""5vw""> Correct match! </font> <br> <br> <font color=""green"" size=""8vw""> + $0.07 </font> </p>","null","feedback","","","","","","","0.51","0.07"
"","","","","","html-keyboard-response","60","141788","0.0-7.8-0.8","652c087ba639f4cb5c2974ce","65801700b94e79b0c0532bf4","6580192c8efab1fba4ec81ed","418","
            
        <div style=""text-align: center; position: fixed; top: 5vh; left: 40vw;"">
            <div style=""margin:0 auto; width: 20vw; top: 8vh; font-size: 2vw""> 
            <font color=""green""> Bonus : $0.51 </font>
            </div>
        </div>
    
            <p> Please press any key to continue to the next movie.</p>
            <p> Remember your choices : <p>
            <div class=""container"">
                <div class=""photos"">
                    <img class=""image"" src=./stimuli//pack_noise_shapes_3/cat_1/prototype_1.png>
                    <span class=""word""><b>Press left arrow key if the shape looks like this one.</b></span>
                </div>
                <div class=""photos"">
                    <img class=""image"" src=./stimuli//pack_noise_shapes_3/cat_2/prototype_2.png>
                    <div class=""word""><b>Press right arrow key if the shape looks like this one.</b></div>
                </div>
            </div>
        "," ","ITI","","","","","","","",""
"","","","","","html-keyboard-response","61","143850","0.0-7.8-1.8","652c087ba639f4cb5c2974ce","65801700b94e79b0c0532bf4","6580192c8efab1fba4ec81ed","2057","./stimuli//pack_noise_shapes_3/cat_1/diff_2/ex_1_2_16.mp4","arrowleft","response","ArrowLeft","16","1","2","test","true","",""
"","","","","","html-keyboard-response","62","145359","0.0-7.8-2.8","652c087ba639f4cb5c2974ce","65801700b94e79b0c0532bf4","6580192c8efab1fba4ec81ed","null","<p> <font color=""green"" size=""5vw""> Correct match! </font> <br> <br> <font color=""green"" size=""8vw""> + $0.07 </font> </p>","null","feedback","","","","","","","0.58","0.07"
"","","","","","html-keyboard-response","63","146035","0.0-7.9-0.9","652c087ba639f4cb5c2974ce","65801700b94e79b0c0532bf4","6580192c8efab1fba4ec81ed","674","
            
        <div style=""text-align: center; position: fixed; top: 5vh; left: 40vw;"">
            <div style=""margin:0 auto; width: 20vw; top: 8vh; font-size: 2vw""> 
            <font color=""green""> Bonus : $0.58 </font>
            </div>
        </div>
    
            <p> Please press any key to continue to the next movie.</p>
            <p> Remember your choices : <p>
            <div class=""container"">
                <div class=""photos"">
                    <img class=""image"" src=./stimuli//pack_noise_shapes_3/cat_1/prototype_1.png>
                    <span class=""word""><b>Press left arrow key if the shape looks like this one.</b></span>
                </div>
                <div class=""photos"">
                    <img class=""image"" src=./stimuli//pack_noise_shapes_3/cat_2/prototype_2.png>
                    <div class=""word""><b>Press right arrow key if the shape looks like this one.</b></div>
                </div>
            </div>
        "," ","ITI","","","","","","","",""
"","","","","","html-keyboard-response","64","148008","0.0-7.9-1.9","652c087ba639f4cb5c2974ce","65801700b94e79b0c0532bf4","6580192c8efab1fba4ec81ed","1972","./stimuli//pack_noise_shapes_3/cat_2/diff_2/ex_2_2_17.mp4","arrowright","response","ArrowRight","17","2","2","test","true","",""
"","","","","","html-keyboard-response","65","149517","0.0-7.9-2.9","652c087ba639f4cb5c2974ce","65801700b94e79b0c0532bf4","6580192c8efab1fba4ec81ed","null","<p> <font color=""green"" size=""5vw""> Correct match! </font> <br> <br> <font color=""green"" size=""8vw""> + $0.07 </font> </p>","null","feedback","","","","","","","0.65","0.07"
"","","","","","html-keyboard-response","66","149817","0.0-7.10-0.10","652c087ba639f4cb5c2974ce","65801700b94e79b0c0532bf4","6580192c8efab1fba4ec81ed","297","
            
        <div style=""text-align: center; position: fixed; top: 5vh; left: 40vw;"">
            <div style=""margin:0 auto; width: 20vw; top: 8vh; font-size: 2vw""> 
            <font color=""green""> Bonus : $0.65 </font>
            </div>
        </div>
    
            <p> Please press any key to continue to the next movie.</p>
            <p> Remember your choices : <p>
            <div class=""container"">
                <div class=""photos"">
                    <img class=""image"" src=./stimuli//pack_noise_shapes_3/cat_1/prototype_1.png>
                    <span class=""word""><b>Press left arrow key if the shape looks like this one.</b></span>
                </div>
                <div class=""photos"">
                    <img class=""image"" src=./stimuli//pack_noise_shapes_3/cat_2/prototype_2.png>
                    <div class=""word""><b>Press right arrow key if the shape looks like this one.</b></div>
                </div>
            </div>
        "," ","ITI","","","","","","","",""
"","","","","","html-keyboard-response","67","151755","0.0-7.10-1.10","652c087ba639f4cb5c2974ce","65801700b94e79b0c0532bf4","6580192c8efab1fba4ec81ed","1933","./stimuli//pack_noise_shapes_3/cat_2/diff_3/ex_2_3_17.mp4","arrowright","response","ArrowRight","17","2","3","test","true","",""
"","","","","","html-keyboard-response","68","153268","0.0-7.10-2.10","652c087ba639f4cb5c2974ce","65801700b94e79b0c0532bf4","6580192c8efab1fba4ec81ed","null","<p> <font color=""green"" size=""5vw""> Correct match! </font> <br> <br> <font color=""green"" size=""8vw""> + $0.07 </font> </p>","null","feedback","","","","","","","0.72","0.07"
"","","","","","html-keyboard-response","69","153547","0.0-7.11-0.11","652c087ba639f4cb5c2974ce","65801700b94e79b0c0532bf4","6580192c8efab1fba4ec81ed","276","
            
        <div style=""text-align: center; position: fixed; top: 5vh; left: 40vw;"">
            <div style=""margin:0 auto; width: 20vw; top: 8vh; font-size: 2vw""> 
            <font color=""green""> Bonus : $0.72 </font>
            </div>
        </div>
    
            <p> Please press any key to continue to the next movie.</p>
            <p> Remember your choices : <p>
            <div class=""container"">
                <div class=""photos"">
                    <img class=""image"" src=./stimuli//pack_noise_shapes_3/cat_1/prototype_1.png>
                    <span class=""word""><b>Press left arrow key if the shape looks like this one.</b></span>
                </div>
                <div class=""photos"">
                    <img class=""image"" src=./stimuli//pack_noise_shapes_3/cat_2/prototype_2.png>
                    <div class=""word""><b>Press right arrow key if the shape looks like this one.</b></div>
                </div>
            </div>
        "," ","ITI","","","","","","","",""
"","","","","","html-keyboard-response","70","156049","0.0-7.11-1.11","652c087ba639f4cb5c2974ce","65801700b94e79b0c0532bf4","6580192c8efab1fba4ec81ed","2497","./stimuli//pack_noise_shapes_3/cat_1/diff_3/ex_1_3_16.mp4","arrowleft","response","ArrowLeft","16","1","3","test","true","",""
"","","","","","html-keyboard-response","71","157561","0.0-7.11-2.11","652c087ba639f4cb5c2974ce","65801700b94e79b0c0532bf4","6580192c8efab1fba4ec81ed","null","<p> <font color=""green"" size=""5vw""> Correct match! </font> <br> <br> <font color=""green"" size=""8vw""> + $0.06 </font> </p>","null","feedback","","","","","","","0.78","0.06"
"","","","","","html-keyboard-response","72","157903","0.0-7.12-0.12","652c087ba639f4cb5c2974ce","65801700b94e79b0c0532bf4","6580192c8efab1fba4ec81ed","339","
            
        <div style=""text-align: center; position: fixed; top: 5vh; left: 40vw;"">
            <div style=""margin:0 auto; width: 20vw; top: 8vh; font-size: 2vw""> 
            <font color=""green""> Bonus : $0.78 </font>
            </div>
        </div>
    
            <p> Please press any key to continue to the next movie.</p>
            <p> Remember your choices : <p>
            <div class=""container"">
                <div class=""photos"">
                    <img class=""image"" src=./stimuli//pack_noise_shapes_3/cat_1/prototype_1.png>
                    <span class=""word""><b>Press left arrow key if the shape looks like this one.</b></span>
                </div>
                <div class=""photos"">
                    <img class=""image"" src=./stimuli//pack_noise_shapes_3/cat_2/prototype_2.png>
                    <div class=""word""><b>Press right arrow key if the shape looks like this one.</b></div>
                </div>
            </div>
        "," ","ITI","","","","","","","",""
"","","","","","html-keyboard-response","73","159999","0.0-7.12-1.12","652c087ba639f4cb5c2974ce","65801700b94e79b0c0532bf4","6580192c8efab1fba4ec81ed","2092","./stimuli//pack_noise_shapes_3/cat_2/diff_3/ex_2_3_16.mp4","arrowright","response","ArrowRight","16","2","3","test","true","",""
"","","","","","html-keyboard-response","74","161511","0.0-7.12-2.12","652c087ba639f4cb5c2974ce","65801700b94e79b0c0532bf4","6580192c8efab1fba4ec81ed","null","<p> <font color=""green"" size=""5vw""> Correct match! </font> <br> <br> <font color=""green"" size=""8vw""> + $0.07 </font> </p>","null","feedback","","","","","","","0.85","0.07"
"","","","","","html-keyboard-response","75","161910","0.0-7.13-0.13","652c087ba639f4cb5c2974ce","65801700b94e79b0c0532bf4","6580192c8efab1fba4ec81ed","397","
            
        <div style=""text-align: center; position: fixed; top: 5vh; left: 40vw;"">
            <div style=""margin:0 auto; width: 20vw; top: 8vh; font-size: 2vw""> 
            <font color=""green""> Bonus : $0.85 </font>
            </div>
        </div>
    
            <p> Please press any key to continue to the next movie.</p>
            <p> Remember your choices : <p>
            <div class=""container"">
                <div class=""photos"">
                    <img class=""image"" src=./stimuli//pack_noise_shapes_3/cat_1/prototype_1.png>
                    <span class=""word""><b>Press left arrow key if the shape looks like this one.</b></span>
                </div>
                <div class=""photos"">
                    <img class=""image"" src=./stimuli//pack_noise_shapes_3/cat_2/prototype_2.png>
                    <div class=""word""><b>Press right arrow key if the shape looks like this one.</b></div>
                </div>
            </div>
        "," ","ITI","","","","","","","",""
"","","","","","html-keyboard-response","76","164011","0.0-7.13-1.13","652c087ba639f4cb5c2974ce","65801700b94e79b0c0532bf4","6580192c8efab1fba4ec81ed","2097","./stimuli//pack_noise_shapes_3/cat_1/diff_3/ex_1_3_3.mp4","arrowleft","response","ArrowLeft","3","1","3","test","true","",""
"","","","","","html-keyboard-response","77","165525","0.0-7.13-2.13","652c087ba639f4cb5c2974ce","65801700b94e79b0c0532bf4","6580192c8efab1fba4ec81ed","null","<p> <font color=""green"" size=""5vw""> Correct match! </font> <br> <br> <font color=""green"" size=""8vw""> + $0.07 </font> </p>","null","feedback","","","","","","","0.92","0.07"
"","","","","","html-keyboard-response","78","165983","0.0-7.14-0.14","652c087ba639f4cb5c2974ce","65801700b94e79b0c0532bf4","6580192c8efab1fba4ec81ed","455","
            
        <div style=""text-align: center; position: fixed; top: 5vh; left: 40vw;"">
            <div style=""margin:0 auto; width: 20vw; top: 8vh; font-size: 2vw""> 
            <font color=""green""> Bonus : $0.92 </font>
            </div>
        </div>
    
            <p> Please press any key to continue to the next movie.</p>
            <p> Remember your choices : <p>
            <div class=""container"">
                <div class=""photos"">
                    <img class=""image"" src=./stimuli//pack_noise_shapes_3/cat_1/prototype_1.png>
                    <span class=""word""><b>Press left arrow key if the shape looks like this one.</b></span>
                </div>
                <div class=""photos"">
                    <img class=""image"" src=./stimuli//pack_noise_shapes_3/cat_2/prototype_2.png>
                    <div class=""word""><b>Press right arrow key if the shape looks like this one.</b></div>
                </div>
            </div>
        "," ","ITI","","","","","","","",""
"","","","","","html-keyboard-response","79","167763","0.0-7.14-1.14","652c087ba639f4cb5c2974ce","65801700b94e79b0c0532bf4","6580192c8efab1fba4ec81ed","1777","./stimuli//pack_noise_shapes_3/cat_2/diff_3/ex_2_3_12.mp4","arrowright","response","ArrowRight","12","2","3","test","true","",""
"","","","","","html-keyboard-response","80","169280","0.0-7.14-2.14","652c087ba639f4cb5c2974ce","65801700b94e79b0c0532bf4","6580192c8efab1fba4ec81ed","null","<p> <font color=""green"" size=""5vw""> Correct match! </font> <br> <br> <font color=""green"" size=""8vw""> + $0.07 </font> </p>","null","feedback","","","","","","","0.99","0.07"
"","","","","","html-keyboard-response","81","169643","0.0-7.15-0.15","652c087ba639f4cb5c2974ce","65801700b94e79b0c0532bf4","6580192c8efab1fba4ec81ed","360","
            
        <div style=""text-align: center; position: fixed; top: 5vh; left: 40vw;"">
            <div style=""margin:0 auto; width: 20vw; top: 8vh; font-size: 2vw""> 
            <font color=""green""> Bonus : $0.99 </font>
            </div>
        </div>
    
            <p> Please press any key to continue to the next movie.</p>
            <p> Remember your choices : <p>
            <div class=""container"">
                <div class=""photos"">
                    <img class=""image"" src=./stimuli//pack_noise_shapes_3/cat_1/prototype_1.png>
                    <span class=""word""><b>Press left arrow key if the shape looks like this one.</b></span>
                </div>
                <div class=""photos"">
                    <img class=""image"" src=./stimuli//pack_noise_shapes_3/cat_2/prototype_2.png>
                    <div class=""word""><b>Press right arrow key if the shape looks like this one.</b></div>
                </div>
            </div>
        "," ","ITI","","","","","","","",""
"","","","","","html-keyboard-response","82","171813","0.0-7.15-1.15","652c087ba639f4cb5c2974ce","65801700b94e79b0c0532bf4","6580192c8efab1fba4ec81ed","2165","./stimuli//pack_noise_shapes_3/cat_1/diff_4/ex_1_4_2.mp4","arrowleft","response","ArrowLeft","2","1","4","test","true","",""
"","","","","","html-keyboard-response","83","173324","0.0-7.15-2.15","652c087ba639f4cb5c2974ce","65801700b94e79b0c0532bf4","6580192c8efab1fba4ec81ed","null","<p> <font color=""green"" size=""5vw""> Correct match! </font> <br> <br> <font color=""green"" size=""8vw""> + $0.06 </font> </p>","null","feedback","","","","","","","1.05","0.06"
"","","","","","html-keyboard-response","84","173640","0.0-7.16-0.16","652c087ba639f4cb5c2974ce","65801700b94e79b0c0532bf4","6580192c8efab1fba4ec81ed","315","
            
        <div style=""text-align: center; position: fixed; top: 5vh; left: 40vw;"">
            <div style=""margin:0 auto; width: 20vw; top: 8vh; font-size: 2vw""> 
            <font color=""green""> Bonus : $1.05 </font>
            </div>
        </div>
    
            <p> Please press any key to continue to the next movie.</p>
            <p> Remember your choices : <p>
            <div class=""container"">
                <div class=""photos"">
                    <img class=""image"" src=./stimuli//pack_noise_shapes_3/cat_1/prototype_1.png>
                    <span class=""word""><b>Press left arrow key if the shape looks like this one.</b></span>
                </div>
                <div class=""photos"">
                    <img class=""image"" src=./stimuli//pack_noise_shapes_3/cat_2/prototype_2.png>
                    <div class=""word""><b>Press right arrow key if the shape looks like this one.</b></div>
                </div>
            </div>
        "," ","ITI","","","","","","","",""
"","","","","","html-keyboard-response","85","175670","0.0-7.16-1.16","652c087ba639f4cb5c2974ce","65801700b94e79b0c0532bf4","6580192c8efab1fba4ec81ed","2026","./stimuli//pack_noise_shapes_3/cat_2/diff_4/ex_2_4_4.mp4","arrowright","response","ArrowRight","4","2","4","test","true","",""
"","","","","","html-keyboard-response","86","177174","0.0-7.16-2.16","652c087ba639f4cb5c2974ce","65801700b94e79b0c0532bf4","6580192c8efab1fba4ec81ed","null","<p> <font color=""green"" size=""5vw""> Correct match! </font> <br> <br> <font color=""green"" size=""8vw""> + $0.07 </font> </p>","null","feedback","","","","","","","1.12","0.07"
"","","","","","html-keyboard-response","87","177511","0.0-7.17-0.17","652c087ba639f4cb5c2974ce","65801700b94e79b0c0532bf4","6580192c8efab1fba4ec81ed","335","
            
        <div style=""text-align: center; position: fixed; top: 5vh; left: 40vw;"">
            <div style=""margin:0 auto; width: 20vw; top: 8vh; font-size: 2vw""> 
            <font color=""green""> Bonus : $1.12 </font>
            </div>
        </div>
    
            <p> Please press any key to continue to the next movie.</p>
            <p> Remember your choices : <p>
            <div class=""container"">
                <div class=""photos"">
                    <img class=""image"" src=./stimuli//pack_noise_shapes_3/cat_1/prototype_1.png>
                    <span class=""word""><b>Press left arrow key if the shape looks like this one.</b></span>
                </div>
                <div class=""photos"">
                    <img class=""image"" src=./stimuli//pack_noise_shapes_3/cat_2/prototype_2.png>
                    <div class=""word""><b>Press right arrow key if the shape looks like this one.</b></div>
                </div>
            </div>
        "," ","ITI","","","","","","","",""
"","","","","","html-keyboard-response","88","179823","0.0-7.17-1.17","652c087ba639f4cb5c2974ce","65801700b94e79b0c0532bf4","6580192c8efab1fba4ec81ed","2308","./stimuli//pack_noise_shapes_3/cat_1/diff_4/ex_1_4_6.mp4","arrowleft","response","ArrowLeft","6","1","4","test","true","",""
"","","","","","html-keyboard-response","89","181327","0.0-7.17-2.17","652c087ba639f4cb5c2974ce","65801700b94e79b0c0532bf4","6580192c8efab1fba4ec81ed","null","<p> <font color=""green"" size=""5vw""> Correct match! </font> <br> <br> <font color=""green"" size=""8vw""> + $0.11 </font> </p>","null","feedback","","","","","","","1.23","0.11"
"","","","","","html-keyboard-response","90","181747","0.0-7.18-0.18","652c087ba639f4cb5c2974ce","65801700b94e79b0c0532bf4","6580192c8efab1fba4ec81ed","419","
            
        <div style=""text-align: center; position: fixed; top: 5vh; left: 40vw;"">
            <div style=""margin:0 auto; width: 20vw; top: 8vh; font-size: 2vw""> 
            <font color=""green""> Bonus : $1.23 </font>
            </div>
        </div>
    
            <p> Please press any key to continue to the next movie.</p>
            <p> Remember your choices : <p>
            <div class=""container"">
                <div class=""photos"">
                    <img class=""image"" src=./stimuli//pack_noise_shapes_3/cat_1/prototype_1.png>
                    <span class=""word""><b>Press left arrow key if the shape looks like this one.</b></span>
                </div>
                <div class=""photos"">
                    <img class=""image"" src=./stimuli//pack_noise_shapes_3/cat_2/prototype_2.png>
                    <div class=""word""><b>Press right arrow key if the shape looks like this one.</b></div>
                </div>
            </div>
        "," ","ITI","","","","","","","",""
"","","","","","html-keyboard-response","91","183804","0.0-7.18-1.18","652c087ba639f4cb5c2974ce","65801700b94e79b0c0532bf4","6580192c8efab1fba4ec81ed","2053","./stimuli//pack_noise_shapes_3/cat_1/diff_4/ex_1_4_8.mp4","arrowleft","response","ArrowLeft","8","1","4","test","true","",""
"","","","","","html-keyboard-response","92","185319","0.0-7.18-2.18","652c087ba639f4cb5c2974ce","65801700b94e79b0c0532bf4","6580192c8efab1fba4ec81ed","null","<p> <font color=""green"" size=""5vw""> Correct match! </font> <br> <br> <font color=""green"" size=""8vw""> + $0.12 </font> </p>","null","feedback","","","","","","","1.35","0.12"
"","","","","","html-keyboard-response","93","185592","0.0-7.19-0.19","652c087ba639f4cb5c2974ce","65801700b94e79b0c0532bf4","6580192c8efab1fba4ec81ed","271","
            
        <div style=""text-align: center; position: fixed; top: 5vh; left: 40vw;"">
            <div style=""margin:0 auto; width: 20vw; top: 8vh; font-size: 2vw""> 
            <font color=""green""> Bonus : $1.35 </font>
            </div>
        </div>
    
            <p> Please press any key to continue to the next movie.</p>
            <p> Remember your choices : <p>
            <div class=""container"">
                <div class=""photos"">
                    <img class=""image"" src=./stimuli//pack_noise_shapes_3/cat_1/prototype_1.png>
                    <span class=""word""><b>Press left arrow key if the shape looks like this one.</b></span>
                </div>
                <div class=""photos"">
                    <img class=""image"" src=./stimuli//pack_noise_shapes_3/cat_2/prototype_2.png>
                    <div class=""word""><b>Press right arrow key if the shape looks like this one.</b></div>
                </div>
            </div>
        "," ","ITI","","","","","","","",""
"","","","","","html-keyboard-response","94","187282","0.0-7.19-1.19","652c087ba639f4cb5c2974ce","65801700b94e79b0c0532bf4","6580192c8efab1fba4ec81ed","1685","./stimuli//pack_noise_shapes_3/cat_2/diff_4/ex_2_4_10.mp4","arrowright","response","ArrowRight","10","2","4","test","true","",""
"","","","","","html-keyboard-response","95","188793","0.0-7.19-2.19","652c087ba639f4cb5c2974ce","65801700b94e79b0c0532bf4","6580192c8efab1fba4ec81ed","null","<p> <font color=""green"" size=""5vw""> Correct match! </font> <br> <br> <font color=""green"" size=""8vw""> + $0.12 </font> </p>","null","feedback","","","","","","","1.47","0.12"
"","","","","","html-keyboard-response","96","189067","0.0-7.20-0.20","652c087ba639f4cb5c2974ce","65801700b94e79b0c0532bf4","6580192c8efab1fba4ec81ed","271","
            
        <div style=""text-align: center; position: fixed; top: 5vh; left: 40vw;"">
            <div style=""margin:0 auto; width: 20vw; top: 8vh; font-size: 2vw""> 
            <font color=""green""> Bonus : $1.47 </font>
            </div>
        </div>
    
            <p> Please press any key to continue to the next movie.</p>
            <p> Remember your choices : <p>
            <div class=""container"">
                <div class=""photos"">
                    <img class=""image"" src=./stimuli//pack_noise_shapes_3/cat_1/prototype_1.png>
                    <span class=""word""><b>Press left arrow key if the shape looks like this one.</b></span>
                </div>
                <div class=""photos"">
                    <img class=""image"" src=./stimuli//pack_noise_shapes_3/cat_2/prototype_2.png>
                    <div class=""word""><b>Press right arrow key if the shape looks like this one.</b></div>
                </div>
            </div>
        "," ","ITI","","","","","","","",""
"","","","","","html-keyboard-response","97","191086","0.0-7.20-1.20","652c087ba639f4cb5c2974ce","65801700b94e79b0c0532bf4","6580192c8efab1fba4ec81ed","2015","./stimuli//pack_noise_shapes_3/cat_1/diff_5/ex_1_5_8.mp4","arrowleft","response","ArrowLeft","8","1","5","test","true","",""
"","","","","","html-keyboard-response","98","192601","0.0-7.20-2.20","652c087ba639f4cb5c2974ce","65801700b94e79b0c0532bf4","6580192c8efab1fba4ec81ed","null","<p> <font color=""green"" size=""5vw""> Correct match! </font> <br> <br> <font color=""green"" size=""8vw""> + $0.12 </font> </p>","null","feedback","","","","","","","1.59","0.12"
"","","","","","html-keyboard-response","99","192684","0.0-7.21-0.21","652c087ba639f4cb5c2974ce","65801700b94e79b0c0532bf4","6580192c8efab1fba4ec81ed","81","
            
        <div style=""text-align: center; position: fixed; top: 5vh; left: 40vw;"">
            <div style=""margin:0 auto; width: 20vw; top: 8vh; font-size: 2vw""> 
            <font color=""green""> Bonus : $1.59 </font>
            </div>
        </div>
    
            <p> Please press any key to continue to the next movie.</p>
            <p> Remember your choices : <p>
            <div class=""container"">
                <div class=""photos"">
                    <img class=""image"" src=./stimuli//pack_noise_shapes_3/cat_1/prototype_1.png>
                    <span class=""word""><b>Press left arrow key if the shape looks like this one.</b></span>
                </div>
                <div class=""photos"">
                    <img class=""image"" src=./stimuli//pack_noise_shapes_3/cat_2/prototype_2.png>
                    <div class=""word""><b>Press right arrow key if the shape looks like this one.</b></div>
                </div>
            </div>
        "," ","ITI","","","","","","","",""
"","","","","","html-keyboard-response","100","195076","0.0-7.21-1.21","652c087ba639f4cb5c2974ce","65801700b94e79b0c0532bf4","6580192c8efab1fba4ec81ed","2390","./stimuli//pack_noise_shapes_3/cat_2/diff_5/ex_2_5_1.mp4","arrowleft","response","ArrowRight","1","2","5","test","false","",""
"","","","","","html-keyboard-response","101","200084","0.0-7.21-2.21","652c087ba639f4cb5c2974ce","65801700b94e79b0c0532bf4","6580192c8efab1fba4ec81ed","null","<p> <font color=""red"" size=""5vw""> Wrong match! </font> <br> <br> <font color=""red"" size=""8vw""> - $0.1 </font> </p>","null","feedback","","","","","","","1.49","-0.1"
"","","","","","html-keyboard-response","102","201323","0.0-7.22-0.22","652c087ba639f4cb5c2974ce","65801700b94e79b0c0532bf4","6580192c8efab1fba4ec81ed","1238","
            
        <div style=""text-align: center; position: fixed; top: 5vh; left: 40vw;"">
            <div style=""margin:0 auto; width: 20vw; top: 8vh; font-size: 2vw""> 
            <font color=""green""> Bonus : $1.49 </font>
            </div>
        </div>
    
            <p> Please press any key to continue to the next movie.</p>
            <p> Remember your choices : <p>
            <div class=""container"">
                <div class=""photos"">
                    <img class=""image"" src=./stimuli//pack_noise_shapes_3/cat_1/prototype_1.png>
                    <span class=""word""><b>Press left arrow key if the shape looks like this one.</b></span>
                </div>
                <div class=""photos"">
                    <img class=""image"" src=./stimuli//pack_noise_shapes_3/cat_2/prototype_2.png>
                    <div class=""word""><b>Press right arrow key if the shape looks like this one.</b></div>
                </div>
            </div>
        "," ","ITI","","","","","","","",""
"","","","","","html-keyboard-response","103","203533","0.0-7.22-1.22","652c087ba639f4cb5c2974ce","65801700b94e79b0c0532bf4","6580192c8efab1fba4ec81ed","2205","./stimuli//pack_noise_shapes_3/cat_1/diff_5/ex_1_5_12.mp4","arrowleft","response","ArrowLeft","12","1","5","test","true","",""
"","","","","","html-keyboard-response","104","205046","0.0-7.22-2.22","652c087ba639f4cb5c2974ce","65801700b94e79b0c0532bf4","6580192c8efab1fba4ec81ed","null","<p> <font color=""green"" size=""5vw""> Correct match! </font> <br> <br> <font color=""green"" size=""8vw""> + $0.11 </font> </p>","null","feedback","","","","","","","1.6","0.11"
"","","","","","html-keyboard-response","105","205187","0.0-7.23-0.23","652c087ba639f4cb5c2974ce","65801700b94e79b0c0532bf4","6580192c8efab1fba4ec81ed","139","
            
        <div style=""text-align: center; position: fixed; top: 5vh; left: 40vw;"">
            <div style=""margin:0 auto; width: 20vw; top: 8vh; font-size: 2vw""> 
            <font color=""green""> Bonus : $1.6 </font>
            </div>
        </div>
    
            <p> Please press any key to continue to the next movie.</p>
            <p> Remember your choices : <p>
            <div class=""container"">
                <div class=""photos"">
                    <img class=""image"" src=./stimuli//pack_noise_shapes_3/cat_1/prototype_1.png>
                    <span class=""word""><b>Press left arrow key if the shape looks like this one.</b></span>
                </div>
                <div class=""photos"">
                    <img class=""image"" src=./stimuli//pack_noise_shapes_3/cat_2/prototype_2.png>
                    <div class=""word""><b>Press right arrow key if the shape looks like this one.</b></div>
                </div>
            </div>
        "," ","ITI","","","","","","","",""
"","","","","","html-keyboard-response","106","207609","0.0-7.23-1.23","652c087ba639f4cb5c2974ce","65801700b94e79b0c0532bf4","6580192c8efab1fba4ec81ed","2419","./stimuli//pack_noise_shapes_3/cat_2/diff_5/ex_2_5_10.mp4","arrowleft","response","ArrowRight","10","2","5","test","false","",""
"","","","","","html-keyboard-response","107","212617","0.0-7.23-2.23","652c087ba639f4cb5c2974ce","65801700b94e79b0c0532bf4","6580192c8efab1fba4ec81ed","null","<p> <font color=""red"" size=""5vw""> Wrong match! </font> <br> <br> <font color=""red"" size=""8vw""> - $0.1 </font> </p>","null","feedback","","","","","","","1.5","-0.1"
"","","","","","html-keyboard-response","108","213545","0.0-7.24-0.24","652c087ba639f4cb5c2974ce","65801700b94e79b0c0532bf4","6580192c8efab1fba4ec81ed","925","
            
        <div style=""text-align: center; position: fixed; top: 5vh; left: 40vw;"">
            <div style=""margin:0 auto; width: 20vw; top: 8vh; font-size: 2vw""> 
            <font color=""green""> Bonus : $1.5 </font>
            </div>
        </div>
    
            <p> Please press any key to continue to the next movie.</p>
            <p> Remember your choices : <p>
            <div class=""container"">
                <div class=""photos"">
                    <img class=""image"" src=./stimuli//pack_noise_shapes_3/cat_1/prototype_1.png>
                    <span class=""word""><b>Press left arrow key if the shape looks like this one.</b></span>
                </div>
                <div class=""photos"">
                    <img class=""image"" src=./stimuli//pack_noise_shapes_3/cat_2/prototype_2.png>
                    <div class=""word""><b>Press right arrow key if the shape looks like this one.</b></div>
                </div>
            </div>
        "," ","ITI","","","","","","","",""
"","","","","","html-keyboard-response","109","216486","0.0-7.24-1.24","652c087ba639f4cb5c2974ce","65801700b94e79b0c0532bf4","6580192c8efab1fba4ec81ed","2937","./stimuli//pack_noise_shapes_3/cat_2/diff_5/ex_2_5_15.mp4","arrowleft","response","ArrowRight","15","2","5","test","false","",""
"","","","","","html-keyboard-response","110","221498","0.0-7.24-2.24","652c087ba639f4cb5c2974ce","65801700b94e79b0c0532bf4","6580192c8efab1fba4ec81ed","null","<p> <font color=""red"" size=""5vw""> Wrong match! </font> <br> <br> <font color=""red"" size=""8vw""> - $0.1 </font> </p>","null","feedback","","","","","","","1.4","-0.1"
"","","","","","html-keyboard-response","111","222802","0.0-7.25-0.25","652c087ba639f4cb5c2974ce","65801700b94e79b0c0532bf4","6580192c8efab1fba4ec81ed","1303","
            
        <div style=""text-align: center; position: fixed; top: 5vh; left: 40vw;"">
            <div style=""margin:0 auto; width: 20vw; top: 8vh; font-size: 2vw""> 
            <font color=""green""> Bonus : $1.4 </font>
            </div>
        </div>
    
            <p> Please press any key to continue to the next movie.</p>
            <p> Remember your choices : <p>
            <div class=""container"">
                <div class=""photos"">
                    <img class=""image"" src=./stimuli//pack_noise_shapes_3/cat_1/prototype_1.png>
                    <span class=""word""><b>Press left arrow key if the shape looks like this one.</b></span>
                </div>
                <div class=""photos"">
                    <img class=""image"" src=./stimuli//pack_noise_shapes_3/cat_2/prototype_2.png>
                    <div class=""word""><b>Press right arrow key if the shape looks like this one.</b></div>
                </div>
            </div>
        "," ","ITI","","","","","","","",""
"","","","","","html-keyboard-response","112","225088","0.0-7.25-1.25","652c087ba639f4cb5c2974ce","65801700b94e79b0c0532bf4","6580192c8efab1fba4ec81ed","2282","./stimuli//pack_noise_shapes_3/cat_2/diff_4/ex_2_4_17.mp4","arrowright","response","ArrowRight","17","2","4","test","true","",""
"","","","","","html-keyboard-response","113","226595","0.0-7.25-2.25","652c087ba639f4cb5c2974ce","65801700b94e79b0c0532bf4","6580192c8efab1fba4ec81ed","null","<p> <font color=""green"" size=""5vw""> Correct match! </font> <br> <br> <font color=""green"" size=""8vw""> + $0.11 </font> </p>","null","feedback","","","","","","","1.51","0.11"
"","","","","","html-keyboard-response","114","227123","0.0-7.26-0.26","652c087ba639f4cb5c2974ce","65801700b94e79b0c0532bf4","6580192c8efab1fba4ec81ed","526","
            
        <div style=""text-align: center; position: fixed; top: 5vh; left: 40vw;"">
            <div style=""margin:0 auto; width: 20vw; top: 8vh; font-size: 2vw""> 
            <font color=""green""> Bonus : $1.51 </font>
            </div>
        </div>
    
            <p> Please press any key to continue to the next movie.</p>
            <p> Remember your choices : <p>
            <div class=""container"">
                <div class=""photos"">
                    <img class=""image"" src=./stimuli//pack_noise_shapes_3/cat_1/prototype_1.png>
                    <span class=""word""><b>Press left arrow key if the shape looks like this one.</b></span>
                </div>
                <div class=""photos"">
                    <img class=""image"" src=./stimuli//pack_noise_shapes_3/cat_2/prototype_2.png>
                    <div class=""word""><b>Press right arrow key if the shape looks like this one.</b></div>
                </div>
            </div>
        "," ","ITI","","","","","","","",""
"","","","","","html-keyboard-response","115","229669","0.0-7.26-1.26","652c087ba639f4cb5c2974ce","65801700b94e79b0c0532bf4","6580192c8efab1fba4ec81ed","2541","./stimuli//pack_noise_shapes_3/cat_2/diff_4/ex_2_4_1.mp4","arrowleft","response","ArrowRight","1","2","4","test","false","",""
"","","","","","html-keyboard-response","116","234672","0.0-7.26-2.26","652c087ba639f4cb5c2974ce","65801700b94e79b0c0532bf4","6580192c8efab1fba4ec81ed","null","<p> <font color=""red"" size=""5vw""> Wrong match! </font> <br> <br> <font color=""red"" size=""8vw""> - $0.1 </font> </p>","null","feedback","","","","","","","1.41","-0.1"
"","","","","","html-keyboard-response","117","235567","0.0-7.27-0.27","652c087ba639f4cb5c2974ce","65801700b94e79b0c0532bf4","6580192c8efab1fba4ec81ed","892","
            
        <div style=""text-align: center; position: fixed; top: 5vh; left: 40vw;"">
            <div style=""margin:0 auto; width: 20vw; top: 8vh; font-size: 2vw""> 
            <font color=""green""> Bonus : $1.41 </font>
            </div>
        </div>
    
            <p> Please press any key to continue to the next movie.</p>
            <p> Remember your choices : <p>
            <div class=""container"">
                <div class=""photos"">
                    <img class=""image"" src=./stimuli//pack_noise_shapes_3/cat_1/prototype_1.png>
                    <span class=""word""><b>Press left arrow key if the shape looks like this one.</b></span>
                </div>
                <div class=""photos"">
                    <img class=""image"" src=./stimuli//pack_noise_shapes_3/cat_2/prototype_2.png>
                    <div class=""word""><b>Press right arrow key if the shape looks like this one.</b></div>
                </div>
            </div>
        "," ","ITI","","","","","","","",""
"","","","","","html-keyboard-response","118","238239","0.0-7.27-1.27","652c087ba639f4cb5c2974ce","65801700b94e79b0c0532bf4","6580192c8efab1fba4ec81ed","2669","./stimuli//pack_noise_shapes_3/cat_1/diff_4/ex_1_4_17.mp4","arrowleft","response","ArrowLeft","17","1","4","test","true","",""
"","","","","","html-keyboard-response","119","239743","0.0-7.27-2.27","652c087ba639f4cb5c2974ce","65801700b94e79b0c0532bf4","6580192c8efab1fba4ec81ed","null","<p> <font color=""green"" size=""5vw""> Correct match! </font> <br> <br> <font color=""green"" size=""8vw""> + $0.11 </font> </p>","null","feedback","","","","","","","1.52","0.11"
"","","","","","html-keyboard-response","120","240219","0.0-7.28-0.28","652c087ba639f4cb5c2974ce","65801700b94e79b0c0532bf4","6580192c8efab1fba4ec81ed","473","
            
        <div style=""text-align: center; position: fixed; top: 5vh; left: 40vw;"">
            <div style=""margin:0 auto; width: 20vw; top: 8vh; font-size: 2vw""> 
            <font color=""green""> Bonus : $1.52 </font>
            </div>
        </div>
    
            <p> Please press any key to continue to the next movie.</p>
            <p> Remember your choices : <p>
            <div class=""container"">
                <div class=""photos"">
                    <img class=""image"" src=./stimuli//pack_noise_shapes_3/cat_1/prototype_1.png>
                    <span class=""word""><b>Press left arrow key if the shape looks like this one.</b></span>
                </div>
                <div class=""photos"">
                    <img class=""image"" src=./stimuli//pack_noise_shapes_3/cat_2/prototype_2.png>
                    <div class=""word""><b>Press right arrow key if the shape looks like this one.</b></div>
                </div>
            </div>
        "," ","ITI","","","","","","","",""
"","","","","","html-keyboard-response","121","242838","0.0-7.28-1.28","652c087ba639f4cb5c2974ce","65801700b94e79b0c0532bf4","6580192c8efab1fba4ec81ed","2616","./stimuli//pack_noise_shapes_3/cat_1/diff_4/ex_1_4_14.mp4","arrowleft","response","ArrowLeft","14","1","4","test","true","",""
"","","","","","html-keyboard-response","122","244340","0.0-7.28-2.28","652c087ba639f4cb5c2974ce","65801700b94e79b0c0532bf4","6580192c8efab1fba4ec81ed","null","<p> <font color=""green"" size=""5vw""> Correct match! </font> <br> <br> <font color=""green"" size=""8vw""> + $0.11 </font> </p>","null","feedback","","","","","","","1.63","0.11"
"","","","","","html-keyboard-response","123","244656","0.0-7.29-0.29","652c087ba639f4cb5c2974ce","65801700b94e79b0c0532bf4","6580192c8efab1fba4ec81ed","313","
            
        <div style=""text-align: center; position: fixed; top: 5vh; left: 40vw;"">
            <div style=""margin:0 auto; width: 20vw; top: 8vh; font-size: 2vw""> 
            <font color=""green""> Bonus : $1.63 </font>
            </div>
        </div>
    
            <p> Please press any key to continue to the next movie.</p>
            <p> Remember your choices : <p>
            <div class=""container"">
                <div class=""photos"">
                    <img class=""image"" src=./stimuli//pack_noise_shapes_3/cat_1/prototype_1.png>
                    <span class=""word""><b>Press left arrow key if the shape looks like this one.</b></span>
                </div>
                <div class=""photos"">
                    <img class=""image"" src=./stimuli//pack_noise_shapes_3/cat_2/prototype_2.png>
                    <div class=""word""><b>Press right arrow key if the shape looks like this one.</b></div>
                </div>
            </div>
        "," ","ITI","","","","","","","",""
"","","","","","html-keyboard-response","124","247022","0.0-7.29-1.29","652c087ba639f4cb5c2974ce","65801700b94e79b0c0532bf4","6580192c8efab1fba4ec81ed","2362","./stimuli//pack_noise_shapes_3/cat_1/diff_4/ex_1_4_15.mp4","arrowleft","response","ArrowLeft","15","1","4","test","true","",""
"","","","","","html-keyboard-response","125","248526","0.0-7.29-2.29","652c087ba639f4cb5c2974ce","65801700b94e79b0c0532bf4","6580192c8efab1fba4ec81ed","null","<p> <font color=""green"" size=""5vw""> Correct match! </font> <br> <br> <font color=""green"" size=""8vw""> + $0.11 </font> </p>","null","feedback","","","","","","","1.74","0.11"
"","","","","","html-keyboard-response","126","249007","0.0-7.30-0.30","652c087ba639f4cb5c2974ce","65801700b94e79b0c0532bf4","6580192c8efab1fba4ec81ed","479","
            
        <div style=""text-align: center; position: fixed; top: 5vh; left: 40vw;"">
            <div style=""margin:0 auto; width: 20vw; top: 8vh; font-size: 2vw""> 
            <font color=""green""> Bonus : $1.74 </font>
            </div>
        </div>
    
            <p> Please press any key to continue to the next movie.</p>
            <p> Remember your choices : <p>
            <div class=""container"">
                <div class=""photos"">
                    <img class=""image"" src=./stimuli//pack_noise_shapes_3/cat_1/prototype_1.png>
                    <span class=""word""><b>Press left arrow key if the shape looks like this one.</b></span>
                </div>
                <div class=""photos"">
                    <img class=""image"" src=./stimuli//pack_noise_shapes_3/cat_2/prototype_2.png>
                    <div class=""word""><b>Press right arrow key if the shape looks like this one.</b></div>
                </div>
            </div>
        "," ","ITI","","","","","","","",""
"","","","","","html-keyboard-response","127","251186","0.0-7.30-1.30","652c087ba639f4cb5c2974ce","65801700b94e79b0c0532bf4","6580192c8efab1fba4ec81ed","2175","./stimuli//pack_noise_shapes_3/cat_1/diff_5/ex_1_5_8.mp4","arrowleft","response","ArrowLeft","8","1","5","test","true","",""
"","","","","","html-keyboard-response","128","252699","0.0-7.30-2.30","652c087ba639f4cb5c2974ce","65801700b94e79b0c0532bf4","6580192c8efab1fba4ec81ed","null","<p> <font color=""green"" size=""5vw""> Correct match! </font> <br> <br> <font color=""green"" size=""8vw""> + $0.11 </font> </p>","null","feedback","","","","","","","1.85","0.11"
"","","","","","html-keyboard-response","129","253092","0.0-7.31-0.31","652c087ba639f4cb5c2974ce","65801700b94e79b0c0532bf4","6580192c8efab1fba4ec81ed","392","
            
        <div style=""text-align: center; position: fixed; top: 5vh; left: 40vw;"">
            <div style=""margin:0 auto; width: 20vw; top: 8vh; font-size: 2vw""> 
            <font color=""green""> Bonus : $1.85 </font>
            </div>
        </div>
    
            <p> Please press any key to continue to the next movie.</p>
            <p> Remember your choices : <p>
            <div class=""container"">
                <div class=""photos"">
                    <img class=""image"" src=./stimuli//pack_noise_shapes_3/cat_1/prototype_1.png>
                    <span class=""word""><b>Press left arrow key if the shape looks like this one.</b></span>
                </div>
                <div class=""photos"">
                    <img class=""image"" src=./stimuli//pack_noise_shapes_3/cat_2/prototype_2.png>
                    <div class=""word""><b>Press right arrow key if the shape looks like this one.</b></div>
                </div>
            </div>
        "," ","ITI","","","","","","","",""
"","","","","","html-keyboard-response","130","255261","0.0-7.31-1.31","652c087ba639f4cb5c2974ce","65801700b94e79b0c0532bf4","6580192c8efab1fba4ec81ed","2168","./stimuli//pack_noise_shapes_3/cat_2/diff_5/ex_2_5_6.mp4","arrowright","response","ArrowRight","6","2","5","test","true","",""
"","","","","","html-keyboard-response","131","256766","0.0-7.31-2.31","652c087ba639f4cb5c2974ce","65801700b94e79b0c0532bf4","6580192c8efab1fba4ec81ed","null","<p> <font color=""green"" size=""5vw""> Correct match! </font> <br> <br> <font color=""green"" size=""8vw""> + $0.11 </font> </p>","null","feedback","","","","","","","1.96","0.11"
"","","","","","html-keyboard-response","132","257235","0.0-7.32-0.32","652c087ba639f4cb5c2974ce","65801700b94e79b0c0532bf4","6580192c8efab1fba4ec81ed","466","
            
        <div style=""text-align: center; position: fixed; top: 5vh; left: 40vw;"">
            <div style=""margin:0 auto; width: 20vw; top: 8vh; font-size: 2vw""> 
            <font color=""green""> Bonus : $1.96 </font>
            </div>
        </div>
    
            <p> Please press any key to continue to the next movie.</p>
            <p> Remember your choices : <p>
            <div class=""container"">
                <div class=""photos"">
                    <img class=""image"" src=./stimuli//pack_noise_shapes_3/cat_1/prototype_1.png>
                    <span class=""word""><b>Press left arrow key if the shape looks like this one.</b></span>
                </div>
                <div class=""photos"">
                    <img class=""image"" src=./stimuli//pack_noise_shapes_3/cat_2/prototype_2.png>
                    <div class=""word""><b>Press right arrow key if the shape looks like this one.</b></div>
                </div>
            </div>
        "," ","ITI","","","","","","","",""
"","","","","","html-keyboard-response","133","259537","0.0-7.32-1.32","652c087ba639f4cb5c2974ce","65801700b94e79b0c0532bf4","6580192c8efab1fba4ec81ed","2298","./stimuli//pack_noise_shapes_3/cat_2/diff_5/ex_2_5_9.mp4","arrowright","response","ArrowRight","9","2","5","test","true","",""
"","","","","","html-keyboard-response","134","261053","0.0-7.32-2.32","652c087ba639f4cb5c2974ce","65801700b94e79b0c0532bf4","6580192c8efab1fba4ec81ed","null","<p> <font color=""green"" size=""5vw""> Correct match! </font> <br> <br> <font color=""green"" size=""8vw""> + $0.11 </font> </p>","null","feedback","","","","","","","2.07","0.11"
"","","","","","html-keyboard-response","135","261379","0.0-7.33-0.33","652c087ba639f4cb5c2974ce","65801700b94e79b0c0532bf4","6580192c8efab1fba4ec81ed","323","
            
        <div style=""text-align: center; position: fixed; top: 5vh; left: 40vw;"">
            <div style=""margin:0 auto; width: 20vw; top: 8vh; font-size: 2vw""> 
            <font color=""green""> Bonus : $2.07 </font>
            </div>
        </div>
    
            <p> Please press any key to continue to the next movie.</p>
            <p> Remember your choices : <p>
            <div class=""container"">
                <div class=""photos"">
                    <img class=""image"" src=./stimuli//pack_noise_shapes_3/cat_1/prototype_1.png>
                    <span class=""word""><b>Press left arrow key if the shape looks like this one.</b></span>
                </div>
                <div class=""photos"">
                    <img class=""image"" src=./stimuli//pack_noise_shapes_3/cat_2/prototype_2.png>
                    <div class=""word""><b>Press right arrow key if the shape looks like this one.</b></div>
                </div>
            </div>
        "," ","ITI","","","","","","","",""
"","","","","","html-keyboard-response","136","263567","0.0-7.33-1.33","652c087ba639f4cb5c2974ce","65801700b94e79b0c0532bf4","6580192c8efab1fba4ec81ed","2184","./stimuli//pack_noise_shapes_3/cat_1/diff_5/ex_1_5_5.mp4","arrowleft","response","ArrowLeft","5","1","5","test","true","",""
"","","","","","html-keyboard-response","137","265083","0.0-7.33-2.33","652c087ba639f4cb5c2974ce","65801700b94e79b0c0532bf4","6580192c8efab1fba4ec81ed","null","<p> <font color=""green"" size=""5vw""> Correct match! </font> <br> <br> <font color=""green"" size=""8vw""> + $0.11 </font> </p>","null","feedback","","","","","","","2.18","0.11"
"","","","","","html-keyboard-response","138","265614","0.0-7.34-0.34","652c087ba639f4cb5c2974ce","65801700b94e79b0c0532bf4","6580192c8efab1fba4ec81ed","529","
            
        <div style=""text-align: center; position: fixed; top: 5vh; left: 40vw;"">
            <div style=""margin:0 auto; width: 20vw; top: 8vh; font-size: 2vw""> 
            <font color=""green""> Bonus : $2.18 </font>
            </div>
        </div>
    
            <p> Please press any key to continue to the next movie.</p>
            <p> Remember your choices : <p>
            <div class=""container"">
                <div class=""photos"">
                    <img class=""image"" src=./stimuli//pack_noise_shapes_3/cat_1/prototype_1.png>
                    <span class=""word""><b>Press left arrow key if the shape looks like this one.</b></span>
                </div>
                <div class=""photos"">
                    <img class=""image"" src=./stimuli//pack_noise_shapes_3/cat_2/prototype_2.png>
                    <div class=""word""><b>Press right arrow key if the shape looks like this one.</b></div>
                </div>
            </div>
        "," ","ITI","","","","","","","",""
"","","","","","html-keyboard-response","139","267487","0.0-7.34-1.34","652c087ba639f4cb5c2974ce","65801700b94e79b0c0532bf4","6580192c8efab1fba4ec81ed","1870","./stimuli//pack_noise_shapes_3/cat_2/diff_5/ex_2_5_11.mp4","arrowright","response","ArrowRight","11","2","5","test","true","",""
"","","","","","html-keyboard-response","140","269004","0.0-7.34-2.34","652c087ba639f4cb5c2974ce","65801700b94e79b0c0532bf4","6580192c8efab1fba4ec81ed","null","<p> <font color=""green"" size=""5vw""> Correct match! </font> <br> <br> <font color=""green"" size=""8vw""> + $0.12 </font> </p>","null","feedback","","","","","","","2.3","0.12"
"","","","","","html-keyboard-response","141","269448","0.0-7.35-0.35","652c087ba639f4cb5c2974ce","65801700b94e79b0c0532bf4","6580192c8efab1fba4ec81ed","441","
            
        <div style=""text-align: center; position: fixed; top: 5vh; left: 40vw;"">
            <div style=""margin:0 auto; width: 20vw; top: 8vh; font-size: 2vw""> 
            <font color=""green""> Bonus : $2.3 </font>
            </div>
        </div>
    
            <p> Please press any key to continue to the next movie.</p>
            <p> Remember your choices : <p>
            <div class=""container"">
                <div class=""photos"">
                    <img class=""image"" src=./stimuli//pack_noise_shapes_3/cat_1/prototype_1.png>
                    <span class=""word""><b>Press left arrow key if the shape looks like this one.</b></span>
                </div>
                <div class=""photos"">
                    <img class=""image"" src=./stimuli//pack_noise_shapes_3/cat_2/prototype_2.png>
                    <div class=""word""><b>Press right arrow key if the shape looks like this one.</b></div>
                </div>
            </div>
        "," ","ITI","","","","","","","",""
"","","","","","html-keyboard-response","142","271826","0.0-7.35-1.35","652c087ba639f4cb5c2974ce","65801700b94e79b0c0532bf4","6580192c8efab1fba4ec81ed","2373","./stimuli//pack_noise_shapes_3/cat_1/diff_5/ex_1_5_2.mp4","arrowleft","response","ArrowLeft","2","1","5","test","true","",""
"","","","","","html-keyboard-response","143","273337","0.0-7.35-2.35","652c087ba639f4cb5c2974ce","65801700b94e79b0c0532bf4","6580192c8efab1fba4ec81ed","null","<p> <font color=""green"" size=""5vw""> Correct match! </font> <br> <br> <font color=""green"" size=""8vw""> + $0.11 </font> </p>","null","feedback","","","","","","","2.41","0.11"
"","","","","","html-keyboard-response","144","273578","0.0-7.36-0.36","652c087ba639f4cb5c2974ce","65801700b94e79b0c0532bf4","6580192c8efab1fba4ec81ed","238","
            
        <div style=""text-align: center; position: fixed; top: 5vh; left: 40vw;"">
            <div style=""margin:0 auto; width: 20vw; top: 8vh; font-size: 2vw""> 
            <font color=""green""> Bonus : $2.41 </font>
            </div>
        </div>
    
            <p> Please press any key to continue to the next movie.</p>
            <p> Remember your choices : <p>
            <div class=""container"">
                <div class=""photos"">
                    <img class=""image"" src=./stimuli//pack_noise_shapes_3/cat_1/prototype_1.png>
                    <span class=""word""><b>Press left arrow key if the shape looks like this one.</b></span>
                </div>
                <div class=""photos"">
                    <img class=""image"" src=./stimuli//pack_noise_shapes_3/cat_2/prototype_2.png>
                    <div class=""word""><b>Press right arrow key if the shape looks like this one.</b></div>
                </div>
            </div>
        "," ","ITI","","","","","","","",""
"","","","","","html-keyboard-response","145","276206","0.0-7.36-1.36","652c087ba639f4cb5c2974ce","65801700b94e79b0c0532bf4","6580192c8efab1fba4ec81ed","2623","./stimuli//pack_noise_shapes_3/cat_2/diff_5/ex_2_5_4.mp4","arrowright","response","ArrowRight","4","2","5","test","true","",""
"","","","","","html-keyboard-response","146","277717","0.0-7.36-2.36","652c087ba639f4cb5c2974ce","65801700b94e79b0c0532bf4","6580192c8efab1fba4ec81ed","null","<p> <font color=""green"" size=""5vw""> Correct match! </font> <br> <br> <font color=""green"" size=""8vw""> + $0.11 </font> </p>","null","feedback","","","","","","","2.52","0.11"
"","","","","","html-keyboard-response","147","278644","0.0-7.37-0.37","652c087ba639f4cb5c2974ce","65801700b94e79b0c0532bf4","6580192c8efab1fba4ec81ed","925","
            
        <div style=""text-align: center; position: fixed; top: 5vh; left: 40vw;"">
            <div style=""margin:0 auto; width: 20vw; top: 8vh; font-size: 2vw""> 
            <font color=""green""> Bonus : $2.52 </font>
            </div>
        </div>
    
            <p> Please press any key to continue to the next movie.</p>
            <p> Remember your choices : <p>
            <div class=""container"">
                <div class=""photos"">
                    <img class=""image"" src=./stimuli//pack_noise_shapes_3/cat_1/prototype_1.png>
                    <span class=""word""><b>Press left arrow key if the shape looks like this one.</b></span>
                </div>
                <div class=""photos"">
                    <img class=""image"" src=./stimuli//pack_noise_shapes_3/cat_2/prototype_2.png>
                    <div class=""word""><b>Press right arrow key if the shape looks like this one.</b></div>
                </div>
            </div>
        "," ","ITI","","","","","","","",""
"","","","","","html-keyboard-response","148","280743","0.0-7.37-1.37","652c087ba639f4cb5c2974ce","65801700b94e79b0c0532bf4","6580192c8efab1fba4ec81ed","2096","./stimuli//pack_noise_shapes_3/cat_2/diff_5/ex_2_5_2.mp4","arrowright","response","ArrowRight","2","2","5","test","true","",""
"","","","","","html-keyboard-response","149","282259","0.0-7.37-2.37","652c087ba639f4cb5c2974ce","65801700b94e79b0c0532bf4","6580192c8efab1fba4ec81ed","null","<p> <font color=""green"" size=""5vw""> Correct match! </font> <br> <br> <font color=""green"" size=""8vw""> + $0.12 </font> </p>","null","feedback","","","","","","","2.64","0.12"
"","","","","","html-keyboard-response","150","282592","0.0-7.38-0.38","652c087ba639f4cb5c2974ce","65801700b94e79b0c0532bf4","6580192c8efab1fba4ec81ed","332","
            
        <div style=""text-align: center; position: fixed; top: 5vh; left: 40vw;"">
            <div style=""margin:0 auto; width: 20vw; top: 8vh; font-size: 2vw""> 
            <font color=""green""> Bonus : $2.64 </font>
            </div>
        </div>
    
            <p> Please press any key to continue to the next movie.</p>
            <p> Remember your choices : <p>
            <div class=""container"">
                <div class=""photos"">
                    <img class=""image"" src=./stimuli//pack_noise_shapes_3/cat_1/prototype_1.png>
                    <span class=""word""><b>Press left arrow key if the shape looks like this one.</b></span>
                </div>
                <div class=""photos"">
                    <img class=""image"" src=./stimuli//pack_noise_shapes_3/cat_2/prototype_2.png>
                    <div class=""word""><b>Press right arrow key if the shape looks like this one.</b></div>
                </div>
            </div>
        "," ","ITI","","","","","","","",""
"","","","","","html-keyboard-response","151","284446","0.0-7.38-1.38","652c087ba639f4cb5c2974ce","65801700b94e79b0c0532bf4","6580192c8efab1fba4ec81ed","1849","./stimuli//pack_noise_shapes_3/cat_2/diff_5/ex_2_5_14.mp4","arrowright","response","ArrowRight","14","2","5","test","true","",""
"","","","","","html-keyboard-response","152","285954","0.0-7.38-2.38","652c087ba639f4cb5c2974ce","65801700b94e79b0c0532bf4","6580192c8efab1fba4ec81ed","null","<p> <font color=""green"" size=""5vw""> Correct match! </font> <br> <br> <font color=""green"" size=""8vw""> + $0.12 </font> </p>","null","feedback","","","","","","","2.76","0.12"
"","","","","","html-keyboard-response","153","286315","0.0-7.39-0.39","652c087ba639f4cb5c2974ce","65801700b94e79b0c0532bf4","6580192c8efab1fba4ec81ed","359","
            
        <div style=""text-align: center; position: fixed; top: 5vh; left: 40vw;"">
            <div style=""margin:0 auto; width: 20vw; top: 8vh; font-size: 2vw""> 
            <font color=""green""> Bonus : $2.76 </font>
            </div>
        </div>
    
            <p> Please press any key to continue to the next movie.</p>
            <p> Remember your choices : <p>
            <div class=""container"">
                <div class=""photos"">
                    <img class=""image"" src=./stimuli//pack_noise_shapes_3/cat_1/prototype_1.png>
                    <span class=""word""><b>Press left arrow key if the shape looks like this one.</b></span>
                </div>
                <div class=""photos"">
                    <img class=""image"" src=./stimuli//pack_noise_shapes_3/cat_2/prototype_2.png>
                    <div class=""word""><b>Press right arrow key if the shape looks like this one.</b></div>
                </div>
            </div>
        "," ","ITI","","","","","","","",""
"","","","","","html-keyboard-response","154","288320","0.0-7.39-1.39","652c087ba639f4cb5c2974ce","65801700b94e79b0c0532bf4","6580192c8efab1fba4ec81ed","2001","./stimuli//pack_noise_shapes_3/cat_1/diff_5/ex_1_5_14.mp4","arrowleft","response","ArrowLeft","14","1","5","test","true","",""
"","","","","","html-keyboard-response","155","289833","0.0-7.39-2.39","652c087ba639f4cb5c2974ce","65801700b94e79b0c0532bf4","6580192c8efab1fba4ec81ed","null","<p> <font color=""green"" size=""5vw""> Correct match! </font> <br> <br> <font color=""green"" size=""8vw""> + $0.12 </font> </p>","null","feedback","","","","","","","2.88","0.12"
"","","","","","html-keyboard-response","156","290178","0.0-7.40-0.40","652c087ba639f4cb5c2974ce","65801700b94e79b0c0532bf4","6580192c8efab1fba4ec81ed","342","
            
        <div style=""text-align: center; position: fixed; top: 5vh; left: 40vw;"">
            <div style=""margin:0 auto; width: 20vw; top: 8vh; font-size: 2vw""> 
            <font color=""green""> Bonus : $2.88 </font>
            </div>
        </div>
    
            <p> Please press any key to continue to the next movie.</p>
            <p> Remember your choices : <p>
            <div class=""container"">
                <div class=""photos"">
                    <img class=""image"" src=./stimuli//pack_noise_shapes_3/cat_1/prototype_1.png>
                    <span class=""word""><b>Press left arrow key if the shape looks like this one.</b></span>
                </div>
                <div class=""photos"">
                    <img class=""image"" src=./stimuli//pack_noise_shapes_3/cat_2/prototype_2.png>
                    <div class=""word""><b>Press right arrow key if the shape looks like this one.</b></div>
                </div>
            </div>
        "," ","ITI","","","","","","","",""
"","","","","","html-keyboard-response","157","292032","0.0-7.40-1.40","652c087ba639f4cb5c2974ce","65801700b94e79b0c0532bf4","6580192c8efab1fba4ec81ed","1851","./stimuli//pack_noise_shapes_3/cat_1/diff_5/ex_1_5_2.mp4","arrowright","response","ArrowLeft","2","1","5","test","false","",""
"","","","","","html-keyboard-response","158","297039","0.0-7.40-2.40","652c087ba639f4cb5c2974ce","65801700b94e79b0c0532bf4","6580192c8efab1fba4ec81ed","null","<p> <font color=""red"" size=""5vw""> Wrong match! </font> <br> <br> <font color=""red"" size=""8vw""> - $0.1 </font> </p>","null","feedback","","","","","","","2.78","-0.1"
"","","","","","html-keyboard-response","159","297545","0.0-7.41-0.41","652c087ba639f4cb5c2974ce","65801700b94e79b0c0532bf4","6580192c8efab1fba4ec81ed","504","
            
        <div style=""text-align: center; position: fixed; top: 5vh; left: 40vw;"">
            <div style=""margin:0 auto; width: 20vw; top: 8vh; font-size: 2vw""> 
            <font color=""green""> Bonus : $2.78 </font>
            </div>
        </div>
    
            <p> Please press any key to continue to the next movie.</p>
            <p> Remember your choices : <p>
            <div class=""container"">
                <div class=""photos"">
                    <img class=""image"" src=./stimuli//pack_noise_shapes_3/cat_1/prototype_1.png>
                    <span class=""word""><b>Press left arrow key if the shape looks like this one.</b></span>
                </div>
                <div class=""photos"">
                    <img class=""image"" src=./stimuli//pack_noise_shapes_3/cat_2/prototype_2.png>
                    <div class=""word""><b>Press right arrow key if the shape looks like this one.</b></div>
                </div>
            </div>
        "," ","ITI","","","","","","","",""
"","","","","","html-keyboard-response","160","300901","0.0-7.41-1.41","652c087ba639f4cb5c2974ce","65801700b94e79b0c0532bf4","6580192c8efab1fba4ec81ed","3351","./stimuli//pack_noise_shapes_3/cat_2/diff_5/ex_2_5_7.mp4","arrowright","response","ArrowRight","7","2","5","test","true","",""
"","","","","","html-keyboard-response","161","302402","0.0-7.41-2.41","652c087ba639f4cb5c2974ce","65801700b94e79b0c0532bf4","6580192c8efab1fba4ec81ed","null","<p> <font color=""green"" size=""5vw""> Correct match! </font> <br> <br> <font color=""green"" size=""8vw""> + $0.1 </font> </p>","null","feedback","","","","","","","2.88","0.1"
"","","","","","html-keyboard-response","162","303204","0.0-7.42-0.42","652c087ba639f4cb5c2974ce","65801700b94e79b0c0532bf4","6580192c8efab1fba4ec81ed","799","
            
        <div style=""text-align: center; position: fixed; top: 5vh; left: 40vw;"">
            <div style=""margin:0 auto; width: 20vw; top: 8vh; font-size: 2vw""> 
            <font color=""green""> Bonus : $2.88 </font>
            </div>
        </div>
    
            <p> Please press any key to continue to the next movie.</p>
            <p> Remember your choices : <p>
            <div class=""container"">
                <div class=""photos"">
                    <img class=""image"" src=./stimuli//pack_noise_shapes_3/cat_1/prototype_1.png>
                    <span class=""word""><b>Press left arrow key if the shape looks like this one.</b></span>
                </div>
                <div class=""photos"">
                    <img class=""image"" src=./stimuli//pack_noise_shapes_3/cat_2/prototype_2.png>
                    <div class=""word""><b>Press right arrow key if the shape looks like this one.</b></div>
                </div>
            </div>
        "," ","ITI","","","","","","","",""
"","","","","","html-keyboard-response","163","305713","0.0-7.42-1.42","652c087ba639f4cb5c2974ce","65801700b94e79b0c0532bf4","6580192c8efab1fba4ec81ed","2505","./stimuli//pack_noise_shapes_3/cat_1/diff_5/ex_1_5_4.mp4","arrowright","response","ArrowLeft","4","1","5","test","false","",""
"","","","","","html-keyboard-response","164","310727","0.0-7.42-2.42","652c087ba639f4cb5c2974ce","65801700b94e79b0c0532bf4","6580192c8efab1fba4ec81ed","null","<p> <font color=""red"" size=""5vw""> Wrong match! </font> <br> <br> <font color=""red"" size=""8vw""> - $0.1 </font> </p>","null","feedback","","","","","","","2.78","-0.1"
"","","","","","html-keyboard-response","165","311289","0.0-7.43-0.43","652c087ba639f4cb5c2974ce","65801700b94e79b0c0532bf4","6580192c8efab1fba4ec81ed","559","
            
        <div style=""text-align: center; position: fixed; top: 5vh; left: 40vw;"">
            <div style=""margin:0 auto; width: 20vw; top: 8vh; font-size: 2vw""> 
            <font color=""green""> Bonus : $2.78 </font>
            </div>
        </div>
    
            <p> Please press any key to continue to the next movie.</p>
            <p> Remember your choices : <p>
            <div class=""container"">
                <div class=""photos"">
                    <img class=""image"" src=./stimuli//pack_noise_shapes_3/cat_1/prototype_1.png>
                    <span class=""word""><b>Press left arrow key if the shape looks like this one.</b></span>
                </div>
