"success","timeout","failed_images","failed_audio","failed_video","trial_type","trial_index","time_elapsed","internal_node_id","subject_id","study_id","session_id","rt","stimulus","response","task","correct_response","exemplar_ID","category","difficulty","phase","correct","bonus","trial_bonus"
"true","false","[]","[]","[]","preload","0","5","0.0-0.0","61322447efdb668e0b2e4f21","65801700b94e79b0c0532bf4","6580190f646de80c5e06d84c","","","","","","","","","","","",""
"","","","","","html-keyboard-response","1","2423","0.0-1.0","61322447efdb668e0b2e4f21","65801700b94e79b0c0532bf4","6580190f646de80c5e06d84c","2417","Welcome to the Category Matching experiment! Press any key to continue."," ","welcome","","","","","","","",""
"","","","","","html-keyboard-response","2","18688","0.0-2.0","61322447efdb668e0b2e4f21","65801700b94e79b0c0532bf4","6580190f646de80c5e06d84c","16263","
            <p>You will be shown movies. Each movie contains a shape that initially is hidden and is gradually revealed. 
            <p> While you watch a shape being revealed, you have to choose which shape from the two below it is most similar to : </p>
            <div class=""container"">
                <div class=""photos"">
                    <img class=""image"" src=./stimuli//pack_noise_shapes_3/cat_1/prototype_1.png>
                    <span class=""word""><b>Press left arrow key to choose this shape.</b></span>
                </div>
                <div class=""photos"">
                    <img class=""image"" src=./stimuli//pack_noise_shapes_3/cat_2/prototype_2.png >
                    <div class=""word""><b>Press right arrow key to choose this shape.</b></div>
                </div>
            </div>
            <br>
            <p>Press any key to continue.</p>
            ","arrowright","introduction_1","","","","","","","",""
"","","","","","html-keyboard-response","3","24956","0.0-3.0","61322447efdb668e0b2e4f21","65801700b94e79b0c0532bf4","6580190f646de80c5e06d84c","6268","
            <p> After you choose, the screen will show you whether you were correct or not.</p>
            <p><b>You will receive a bonus payment for each correct answer! The faster you answer the higher the bonus will be!</b></p>
            <p> So you can increase your bonus by guessing as quickly and accurately as possible.</p>
            <p><b>You will lose $0.1 from your bonus payment for each incorrect answer! The bonus can not become less than $0.</b> </p>
            <p>Press any key to continue.</p>
    ","arrowleft","introduction_2","","","","","","","",""
"","","","","","html-keyboard-response","4","26008","0.0-4.0","61322447efdb668e0b2e4f21","65801700b94e79b0c0532bf4","6580190f646de80c5e06d84c","1051","
            <p> <b>The first 10 shapes are a practice round that will not count towards your bonus payment.</b></p>
            <p> You will be notified when practice finishes and the test begins. </p>
            <p> Press any key to begin the practice round.</p>
            ","arrowup","introduction_3","","","","","","","",""
"","","","","","html-keyboard-response","5","44989","0.0-5.0-0.0","61322447efdb668e0b2e4f21","65801700b94e79b0c0532bf4","6580190f646de80c5e06d84c","18979","
            
        <div style=""text-align: center; position: fixed; top: 5vh; left: 40vw;"">
            <div style=""margin:0 auto; width: 20vw; top: 8vh; font-size: 2vw""> 
            <font color=""green""> Bonus : $0 </font>
            </div>
        </div>
    
            <p> Please press any key to continue to the next movie.</p>
            <p> Remember your choices : <p>
            <div class=""container"">
                <div class=""photos"">
                    <img class=""image"" src=./stimuli//pack_noise_shapes_3/cat_1/prototype_1.png>
                    <span class=""word""><b>Press left arrow key if the shape looks like this one.</b></span>
                </div>
                <div class=""photos"">
                    <img class=""image"" src=./stimuli//pack_noise_shapes_3/cat_2/prototype_2.png>
                    <div class=""word""><b>Press right arrow key if the shape looks like this one.</b></div>
                </div>
            </div>
        ","arrowleft","ITI","","","","","","","",""
"","","","","","html-keyboard-response","6","48202","0.0-5.0-1.0","61322447efdb668e0b2e4f21","65801700b94e79b0c0532bf4","6580190f646de80c5e06d84c","3207","./stimuli//pack_noise_shapes_3/cat_1/diff_1/ex_1_1_17.mp4","arrowleft","response","ArrowLeft","17","1","1","train","true","",""
"","","","","","html-keyboard-response","7","49719","0.0-5.0-2.0","61322447efdb668e0b2e4f21","65801700b94e79b0c0532bf4","6580190f646de80c5e06d84c","null","<p> <font color=""green"" size=""5vw""> Correct category! </font> </p>","null","feedback","","","","","","","0","0"
"","","","","","html-keyboard-response","8","56680","0.0-5.0-0.1","61322447efdb668e0b2e4f21","65801700b94e79b0c0532bf4","6580190f646de80c5e06d84c","6959","
            
        <div style=""text-align: center; position: fixed; top: 5vh; left: 40vw;"">
            <div style=""margin:0 auto; width: 20vw; top: 8vh; font-size: 2vw""> 
            <font color=""green""> Bonus : $0 </font>
            </div>
        </div>
    
            <p> Please press any key to continue to the next movie.</p>
            <p> Remember your choices : <p>
            <div class=""container"">
                <div class=""photos"">
                    <img class=""image"" src=./stimuli//pack_noise_shapes_3/cat_1/prototype_1.png>
                    <span class=""word""><b>Press left arrow key if the shape looks like this one.</b></span>
                </div>
                <div class=""photos"">
                    <img class=""image"" src=./stimuli//pack_noise_shapes_3/cat_2/prototype_2.png>
                    <div class=""word""><b>Press right arrow key if the shape looks like this one.</b></div>
                </div>
            </div>
        ","arrowright","ITI","","","","","","","",""
"","","","","","html-keyboard-response","9","59332","0.0-5.0-1.1","61322447efdb668e0b2e4f21","65801700b94e79b0c0532bf4","6580190f646de80c5e06d84c","2650","./stimuli//pack_noise_shapes_3/cat_1/diff_1/ex_1_1_6.mp4","arrowleft","response","ArrowLeft","6","1","1","train","true","",""
"","","","","","html-keyboard-response","10","60840","0.0-5.0-2.1","61322447efdb668e0b2e4f21","65801700b94e79b0c0532bf4","6580190f646de80c5e06d84c","null","<p> <font color=""green"" size=""5vw""> Correct category! </font> </p>","null","feedback","","","","","","","0","0"
"","","","","","html-keyboard-response","11","63062","0.0-5.0-0.2","61322447efdb668e0b2e4f21","65801700b94e79b0c0532bf4","6580190f646de80c5e06d84c","2221","
            
        <div style=""text-align: center; position: fixed; top: 5vh; left: 40vw;"">
            <div style=""margin:0 auto; width: 20vw; top: 8vh; font-size: 2vw""> 
            <font color=""green""> Bonus : $0 </font>
            </div>
        </div>
    
            <p> Please press any key to continue to the next movie.</p>
            <p> Remember your choices : <p>
            <div class=""container"">
                <div class=""photos"">
                    <img class=""image"" src=./stimuli//pack_noise_shapes_3/cat_1/prototype_1.png>
                    <span class=""word""><b>Press left arrow key if the shape looks like this one.</b></span>
                </div>
                <div class=""photos"">
                    <img class=""image"" src=./stimuli//pack_noise_shapes_3/cat_2/prototype_2.png>
                    <div class=""word""><b>Press right arrow key if the shape looks like this one.</b></div>
                </div>
            </div>
        ","arrowleft","ITI","","","","","","","",""
"","","","","","html-keyboard-response","12","65969","0.0-5.0-1.2","61322447efdb668e0b2e4f21","65801700b94e79b0c0532bf4","6580190f646de80c5e06d84c","2904","./stimuli//pack_noise_shapes_3/cat_1/diff_2/ex_1_2_17.mp4","arrowleft","response","ArrowLeft","17","1","2","train","true","",""
"","","","","","html-keyboard-response","13","67483","0.0-5.0-2.2","61322447efdb668e0b2e4f21","65801700b94e79b0c0532bf4","6580190f646de80c5e06d84c","null","<p> <font color=""green"" size=""5vw""> Correct category! </font> </p>","null","feedback","","","","","","","0","0"
"","","","","","html-keyboard-response","14","68292","0.0-5.0-0.3","61322447efdb668e0b2e4f21","65801700b94e79b0c0532bf4","6580190f646de80c5e06d84c","808","
            
        <div style=""text-align: center; position: fixed; top: 5vh; left: 40vw;"">
            <div style=""margin:0 auto; width: 20vw; top: 8vh; font-size: 2vw""> 
            <font color=""green""> Bonus : $0 </font>
            </div>
        </div>
    
            <p> Please press any key to continue to the next movie.</p>
            <p> Remember your choices : <p>
            <div class=""container"">
                <div class=""photos"">
                    <img class=""image"" src=./stimuli//pack_noise_shapes_3/cat_1/prototype_1.png>
                    <span class=""word""><b>Press left arrow key if the shape looks like this one.</b></span>
                </div>
                <div class=""photos"">
                    <img class=""image"" src=./stimuli//pack_noise_shapes_3/cat_2/prototype_2.png>
                    <div class=""word""><b>Press right arrow key if the shape looks like this one.</b></div>
                </div>
            </div>
        ","arrowleft","ITI","","","","","","","",""
"","","","","","html-keyboard-response","15","70857","0.0-5.0-1.3","61322447efdb668e0b2e4f21","65801700b94e79b0c0532bf4","6580190f646de80c5e06d84c","2563","./stimuli//pack_noise_shapes_3/cat_2/diff_2/ex_2_2_16.mp4","arrowright","response","ArrowRight","16","2","2","train","true","",""
"","","","","","html-keyboard-response","16","72366","0.0-5.0-2.3","61322447efdb668e0b2e4f21","65801700b94e79b0c0532bf4","6580190f646de80c5e06d84c","null","<p> <font color=""green"" size=""5vw""> Correct category! </font> </p>","null","feedback","","","","","","","0","0"
"","","","","","html-keyboard-response","17","73626","0.0-5.0-0.4","61322447efdb668e0b2e4f21","65801700b94e79b0c0532bf4","6580190f646de80c5e06d84c","1259","
            
        <div style=""text-align: center; position: fixed; top: 5vh; left: 40vw;"">
            <div style=""margin:0 auto; width: 20vw; top: 8vh; font-size: 2vw""> 
            <font color=""green""> Bonus : $0 </font>
            </div>
        </div>
    
            <p> Please press any key to continue to the next movie.</p>
            <p> Remember your choices : <p>
            <div class=""container"">
                <div class=""photos"">
                    <img class=""image"" src=./stimuli//pack_noise_shapes_3/cat_1/prototype_1.png>
                    <span class=""word""><b>Press left arrow key if the shape looks like this one.</b></span>
                </div>
                <div class=""photos"">
                    <img class=""image"" src=./stimuli//pack_noise_shapes_3/cat_2/prototype_2.png>
                    <div class=""word""><b>Press right arrow key if the shape looks like this one.</b></div>
                </div>
            </div>
        ","arrowleft","ITI","","","","","","","",""
"","","","","","html-keyboard-response","18","76761","0.0-5.0-1.4","61322447efdb668e0b2e4f21","65801700b94e79b0c0532bf4","6580190f646de80c5e06d84c","3133","./stimuli//pack_noise_shapes_3/cat_2/diff_1/ex_2_1_8.mp4","arrowright","response","ArrowRight","8","2","1","train","true","",""
"","","","","","html-keyboard-response","19","78262","0.0-5.0-2.4","61322447efdb668e0b2e4f21","65801700b94e79b0c0532bf4","6580190f646de80c5e06d84c","null","<p> <font color=""green"" size=""5vw""> Correct category! </font> </p>","null","feedback","","","","","","","0","0"
"","","","","","html-keyboard-response","20","79418","0.0-5.0-0.5","61322447efdb668e0b2e4f21","65801700b94e79b0c0532bf4","6580190f646de80c5e06d84c","1154","
            
        <div style=""text-align: center; position: fixed; top: 5vh; left: 40vw;"">
            <div style=""margin:0 auto; width: 20vw; top: 8vh; font-size: 2vw""> 
            <font color=""green""> Bonus : $0 </font>
            </div>
        </div>
    
            <p> Please press any key to continue to the next movie.</p>
            <p> Remember your choices : <p>
            <div class=""container"">
                <div class=""photos"">
                    <img class=""image"" src=./stimuli//pack_noise_shapes_3/cat_1/prototype_1.png>
                    <span class=""word""><b>Press left arrow key if the shape looks like this one.</b></span>
                </div>
                <div class=""photos"">
                    <img class=""image"" src=./stimuli//pack_noise_shapes_3/cat_2/prototype_2.png>
                    <div class=""word""><b>Press right arrow key if the shape looks like this one.</b></div>
                </div>
            </div>
        ","arrowright","ITI","","","","","","","",""
"","","","","","html-keyboard-response","21","82276","0.0-5.0-1.5","61322447efdb668e0b2e4f21","65801700b94e79b0c0532bf4","6580190f646de80c5e06d84c","2856","./stimuli//pack_noise_shapes_3/cat_2/diff_1/ex_2_1_11.mp4","arrowright","response","ArrowRight","11","2","1","train","true","",""
"","","","","","html-keyboard-response","22","83786","0.0-5.0-2.5","61322447efdb668e0b2e4f21","65801700b94e79b0c0532bf4","6580190f646de80c5e06d84c","null","<p> <font color=""green"" size=""5vw""> Correct category! </font> </p>","null","feedback","","","","","","","0","0"
"","","","","","html-keyboard-response","23","86246","0.0-5.0-0.6","61322447efdb668e0b2e4f21","65801700b94e79b0c0532bf4","6580190f646de80c5e06d84c","2459","
            
        <div style=""text-align: center; position: fixed; top: 5vh; left: 40vw;"">
            <div style=""margin:0 auto; width: 20vw; top: 8vh; font-size: 2vw""> 
            <font color=""green""> Bonus : $0 </font>
            </div>
        </div>
    
            <p> Please press any key to continue to the next movie.</p>
            <p> Remember your choices : <p>
            <div class=""container"">
                <div class=""photos"">
                    <img class=""image"" src=./stimuli//pack_noise_shapes_3/cat_1/prototype_1.png>
                    <span class=""word""><b>Press left arrow key if the shape looks like this one.</b></span>
                </div>
                <div class=""photos"">
                    <img class=""image"" src=./stimuli//pack_noise_shapes_3/cat_2/prototype_2.png>
                    <div class=""word""><b>Press right arrow key if the shape looks like this one.</b></div>
                </div>
            </div>
        ","arrowright","ITI","","","","","","","",""
"","","","","","html-keyboard-response","24","88866","0.0-5.0-1.6","61322447efdb668e0b2e4f21","65801700b94e79b0c0532bf4","6580190f646de80c5e06d84c","2618","./stimuli//pack_noise_shapes_3/cat_2/diff_1/ex_2_1_12.mp4","arrowright","response","ArrowRight","12","2","1","train","true","",""
"","","","","","html-keyboard-response","25","90383","0.0-5.0-2.6","61322447efdb668e0b2e4f21","65801700b94e79b0c0532bf4","6580190f646de80c5e06d84c","null","<p> <font color=""green"" size=""5vw""> Correct category! </font> </p>","null","feedback","","","","","","","0","0"
"","","","","","html-keyboard-response","26","91936","0.0-5.0-0.7","61322447efdb668e0b2e4f21","65801700b94e79b0c0532bf4","6580190f646de80c5e06d84c","1551","
            
        <div style=""text-align: center; position: fixed; top: 5vh; left: 40vw;"">
            <div style=""margin:0 auto; width: 20vw; top: 8vh; font-size: 2vw""> 
            <font color=""green""> Bonus : $0 </font>
            </div>
        </div>
    
            <p> Please press any key to continue to the next movie.</p>
            <p> Remember your choices : <p>
            <div class=""container"">
                <div class=""photos"">
                    <img class=""image"" src=./stimuli//pack_noise_shapes_3/cat_1/prototype_1.png>
                    <span class=""word""><b>Press left arrow key if the shape looks like this one.</b></span>
                </div>
                <div class=""photos"">
                    <img class=""image"" src=./stimuli//pack_noise_shapes_3/cat_2/prototype_2.png>
                    <div class=""word""><b>Press right arrow key if the shape looks like this one.</b></div>
                </div>
            </div>
        ","arrowright","ITI","","","","","","","",""
"","","","","","html-keyboard-response","27","94498","0.0-5.0-1.7","61322447efdb668e0b2e4f21","65801700b94e79b0c0532bf4","6580190f646de80c5e06d84c","2560","./stimuli//pack_noise_shapes_3/cat_1/diff_1/ex_1_1_4.mp4","arrowleft","response","ArrowLeft","4","1","1","train","true","",""
"","","","","","html-keyboard-response","28","96001","0.0-5.0-2.7","61322447efdb668e0b2e4f21","65801700b94e79b0c0532bf4","6580190f646de80c5e06d84c","null","<p> <font color=""green"" size=""5vw""> Correct category! </font> </p>","null","feedback","","","","","","","0","0"
"","","","","","html-keyboard-response","29","96989","0.0-5.0-0.8","61322447efdb668e0b2e4f21","65801700b94e79b0c0532bf4","6580190f646de80c5e06d84c","987","
            
        <div style=""text-align: center; position: fixed; top: 5vh; left: 40vw;"">
            <div style=""margin:0 auto; width: 20vw; top: 8vh; font-size: 2vw""> 
            <font color=""green""> Bonus : $0 </font>
            </div>
        </div>
    
            <p> Please press any key to continue to the next movie.</p>
            <p> Remember your choices : <p>
            <div class=""container"">
                <div class=""photos"">
                    <img class=""image"" src=./stimuli//pack_noise_shapes_3/cat_1/prototype_1.png>
                    <span class=""word""><b>Press left arrow key if the shape looks like this one.</b></span>
                </div>
                <div class=""photos"">
                    <img class=""image"" src=./stimuli//pack_noise_shapes_3/cat_2/prototype_2.png>
                    <div class=""word""><b>Press right arrow key if the shape looks like this one.</b></div>
                </div>
            </div>
        ","arrowleft","ITI","","","","","","","",""
"","","","","","html-keyboard-response","30","101679","0.0-5.0-1.8","61322447efdb668e0b2e4f21","65801700b94e79b0c0532bf4","6580190f646de80c5e06d84c","4688","./stimuli//pack_noise_shapes_3/cat_2/diff_2/ex_2_2_8.mp4","arrowright","response","ArrowRight","8","2","2","train","true","",""
"","","","","","html-keyboard-response","31","103192","0.0-5.0-2.8","61322447efdb668e0b2e4f21","65801700b94e79b0c0532bf4","6580190f646de80c5e06d84c","null","<p> <font color=""green"" size=""5vw""> Correct category! </font> </p>","null","feedback","","","","","","","0","0"
"","","","","","html-keyboard-response","32","105026","0.0-5.0-0.9","61322447efdb668e0b2e4f21","65801700b94e79b0c0532bf4","6580190f646de80c5e06d84c","1833","
            
        <div style=""text-align: center; position: fixed; top: 5vh; left: 40vw;"">
            <div style=""margin:0 auto; width: 20vw; top: 8vh; font-size: 2vw""> 
            <font color=""green""> Bonus : $0 </font>
            </div>
        </div>
    
            <p> Please press any key to continue to the next movie.</p>
            <p> Remember your choices : <p>
            <div class=""container"">
                <div class=""photos"">
                    <img class=""image"" src=./stimuli//pack_noise_shapes_3/cat_1/prototype_1.png>
                    <span class=""word""><b>Press left arrow key if the shape looks like this one.</b></span>
                </div>
                <div class=""photos"">
                    <img class=""image"" src=./stimuli//pack_noise_shapes_3/cat_2/prototype_2.png>
                    <div class=""word""><b>Press right arrow key if the shape looks like this one.</b></div>
                </div>
            </div>
        ","arrowright","ITI","","","","","","","",""
"","","","","","html-keyboard-response","33","107883","0.0-5.0-1.9","61322447efdb668e0b2e4f21","65801700b94e79b0c0532bf4","6580190f646de80c5e06d84c","2854","./stimuli//pack_noise_shapes_3/cat_1/diff_2/ex_1_2_15.mp4","arrowleft","response","ArrowLeft","15","1","2","train","true","",""
"","","","","","html-keyboard-response","34","109400","0.0-5.0-2.9","61322447efdb668e0b2e4f21","65801700b94e79b0c0532bf4","6580190f646de80c5e06d84c","null","<p> <font color=""green"" size=""5vw""> Correct category! </font> </p>","null","feedback","","","","","","","0","0"
"","","","","","html-keyboard-response","35","124935","0.0-6.0","61322447efdb668e0b2e4f21","65801700b94e79b0c0532bf4","6580190f646de80c5e06d84c","15535","
            <b> <p> The practice round has finished.</p>
            <b> <p> For the rest of the experiment you will receive a bonus payment for each correct answer, which will be higher the faster you answer!</b></p>
            <b> <p> Also you will lose $0.1 from your bonus payment for each incorrect answer!</p>
            <p> Press any key to begin the test. </p>
            ","arrowleft","intermission","","","","","","","",""
"","","","","","html-keyboard-response","36","142631","0.0-7.0-0.0","61322447efdb668e0b2e4f21","65801700b94e79b0c0532bf4","6580190f646de80c5e06d84c","17695","
            
        <div style=""text-align: center; position: fixed; top: 5vh; left: 40vw;"">
            <div style=""margin:0 auto; width: 20vw; top: 8vh; font-size: 2vw""> 
            <font color=""green""> Bonus : $0 </font>
            </div>
        </div>
    
            <p> Please press any key to continue to the next movie.</p>
            <p> Remember your choices : <p>
            <div class=""container"">
                <div class=""photos"">
                    <img class=""image"" src=./stimuli//pack_noise_shapes_3/cat_1/prototype_1.png>
                    <span class=""word""><b>Press left arrow key if the shape looks like this one.</b></span>
                </div>
                <div class=""photos"">
                    <img class=""image"" src=./stimuli//pack_noise_shapes_3/cat_2/prototype_2.png>
                    <div class=""word""><b>Press right arrow key if the shape looks like this one.</b></div>
                </div>
            </div>
        ","arrowright","ITI","","","","","","","",""
"","","","","","html-keyboard-response","37","144863","0.0-7.0-1.0","61322447efdb668e0b2e4f21","65801700b94e79b0c0532bf4","6580190f646de80c5e06d84c","2229","./stimuli//pack_noise_shapes_3/cat_2/diff_1/ex_2_1_4.mp4","arrowright","response","ArrowRight","4","2","1","test","true","",""
"","","","","","html-keyboard-response","38","146366","0.0-7.0-2.0","61322447efdb668e0b2e4f21","65801700b94e79b0c0532bf4","6580190f646de80c5e06d84c","null","<p> <font color=""green"" size=""5vw""> Correct match! </font> <br> <br> <font color=""green"" size=""8vw""> + $0.06 </font> </p>","null","feedback","","","","","","","0.06","0.06"
"","","","","","html-keyboard-response","39","148680","0.0-7.1-0.1","61322447efdb668e0b2e4f21","65801700b94e79b0c0532bf4","6580190f646de80c5e06d84c","2311","
            
        <div style=""text-align: center; position: fixed; top: 5vh; left: 40vw;"">
            <div style=""margin:0 auto; width: 20vw; top: 8vh; font-size: 2vw""> 
            <font color=""green""> Bonus : $0.06 </font>
            </div>
        </div>
    
            <p> Please press any key to continue to the next movie.</p>
            <p> Remember your choices : <p>
            <div class=""container"">
                <div class=""photos"">
                    <img class=""image"" src=./stimuli//pack_noise_shapes_3/cat_1/prototype_1.png>
                    <span class=""word""><b>Press left arrow key if the shape looks like this one.</b></span>
                </div>
                <div class=""photos"">
                    <img class=""image"" src=./stimuli//pack_noise_shapes_3/cat_2/prototype_2.png>
                    <div class=""word""><b>Press right arrow key if the shape looks like this one.</b></div>
                </div>
            </div>
        ","arrowleft","ITI","","","","","","","",""
"","","","","","html-keyboard-response","40","152144","0.0-7.1-1.1","61322447efdb668e0b2e4f21","65801700b94e79b0c0532bf4","6580190f646de80c5e06d84c","3461","./stimuli//pack_noise_shapes_3/cat_2/diff_1/ex_2_1_14.mp4","arrowright","response","ArrowRight","14","2","1","test","true","",""
"","","","","","html-keyboard-response","41","153653","0.0-7.1-2.1","61322447efdb668e0b2e4f21","65801700b94e79b0c0532bf4","6580190f646de80c5e06d84c","null","<p> <font color=""green"" size=""5vw""> Correct match! </font> <br> <br> <font color=""green"" size=""8vw""> + $0.05 </font> </p>","null","feedback","","","","","","","0.11","0.05"
"","","","","","html-keyboard-response","42","155534","0.0-7.2-0.2","61322447efdb668e0b2e4f21","65801700b94e79b0c0532bf4","6580190f646de80c5e06d84c","1879","
            
        <div style=""text-align: center; position: fixed; top: 5vh; left: 40vw;"">
            <div style=""margin:0 auto; width: 20vw; top: 8vh; font-size: 2vw""> 
            <font color=""green""> Bonus : $0.11 </font>
            </div>
        </div>
    
            <p> Please press any key to continue to the next movie.</p>
            <p> Remember your choices : <p>
            <div class=""container"">
                <div class=""photos"">
                    <img class=""image"" src=./stimuli//pack_noise_shapes_3/cat_1/prototype_1.png>
                    <span class=""word""><b>Press left arrow key if the shape looks like this one.</b></span>
                </div>
                <div class=""photos"">
                    <img class=""image"" src=./stimuli//pack_noise_shapes_3/cat_2/prototype_2.png>
                    <div class=""word""><b>Press right arrow key if the shape looks like this one.</b></div>
                </div>
            </div>
        ","arrowleft","ITI","","","","","","","",""
"","","","","","html-keyboard-response","43","157703","0.0-7.2-1.2","61322447efdb668e0b2e4f21","65801700b94e79b0c0532bf4","6580190f646de80c5e06d84c","2166","./stimuli//pack_noise_shapes_3/cat_1/diff_1/ex_1_1_7.mp4","arrowleft","response","ArrowLeft","7","1","1","test","true","",""
"","","","","","html-keyboard-response","44","159219","0.0-7.2-2.2","61322447efdb668e0b2e4f21","65801700b94e79b0c0532bf4","6580190f646de80c5e06d84c","null","<p> <font color=""green"" size=""5vw""> Correct match! </font> <br> <br> <font color=""green"" size=""8vw""> + $0.06 </font> </p>","null","feedback","","","","","","","0.17","0.06"
"","","","","","html-keyboard-response","45","160247","0.0-7.3-0.3","61322447efdb668e0b2e4f21","65801700b94e79b0c0532bf4","6580190f646de80c5e06d84c","1026","
            
        <div style=""text-align: center; position: fixed; top: 5vh; left: 40vw;"">
            <div style=""margin:0 auto; width: 20vw; top: 8vh; font-size: 2vw""> 
            <font color=""green""> Bonus : $0.17 </font>
            </div>
        </div>
    
            <p> Please press any key to continue to the next movie.</p>
            <p> Remember your choices : <p>
            <div class=""container"">
                <div class=""photos"">
                    <img class=""image"" src=./stimuli//pack_noise_shapes_3/cat_1/prototype_1.png>
                    <span class=""word""><b>Press left arrow key if the shape looks like this one.</b></span>
                </div>
                <div class=""photos"">
                    <img class=""image"" src=./stimuli//pack_noise_shapes_3/cat_2/prototype_2.png>
                    <div class=""word""><b>Press right arrow key if the shape looks like this one.</b></div>
                </div>
            </div>
        ","arrowleft","ITI","","","","","","","",""
"","","","","","html-keyboard-response","46","162679","0.0-7.3-1.3","61322447efdb668e0b2e4f21","65801700b94e79b0c0532bf4","6580190f646de80c5e06d84c","2430","./stimuli//pack_noise_shapes_3/cat_2/diff_1/ex_2_1_2.mp4","arrowright","response","ArrowRight","2","2","1","test","true","",""
"","","","","","html-keyboard-response","47","164184","0.0-7.3-2.3","61322447efdb668e0b2e4f21","65801700b94e79b0c0532bf4","6580190f646de80c5e06d84c","null","<p> <font color=""green"" size=""5vw""> Correct match! </font> <br> <br> <font color=""green"" size=""8vw""> + $0.06 </font> </p>","null","feedback","","","","","","","0.23","0.06"
"","","","","","html-keyboard-response","48","165306","0.0-7.4-0.4","61322447efdb668e0b2e4f21","65801700b94e79b0c0532bf4","6580190f646de80c5e06d84c","1120","
            
        <div style=""text-align: center; position: fixed; top: 5vh; left: 40vw;"">
            <div style=""margin:0 auto; width: 20vw; top: 8vh; font-size: 2vw""> 
            <font color=""green""> Bonus : $0.23 </font>
            </div>
        </div>
    
            <p> Please press any key to continue to the next movie.</p>
            <p> Remember your choices : <p>
            <div class=""container"">
                <div class=""photos"">
                    <img class=""image"" src=./stimuli//pack_noise_shapes_3/cat_1/prototype_1.png>
                    <span class=""word""><b>Press left arrow key if the shape looks like this one.</b></span>
                </div>
                <div class=""photos"">
                    <img class=""image"" src=./stimuli//pack_noise_shapes_3/cat_2/prototype_2.png>
                    <div class=""word""><b>Press right arrow key if the shape looks like this one.</b></div>
                </div>
            </div>
        ","arrowleft","ITI","","","","","","","",""
"","","","","","html-keyboard-response","49","167127","0.0-7.4-1.4","61322447efdb668e0b2e4f21","65801700b94e79b0c0532bf4","6580190f646de80c5e06d84c","1818","./stimuli//pack_noise_shapes_3/cat_2/diff_1/ex_2_1_16.mp4","arrowright","response","ArrowRight","16","2","1","test","true","",""
"","","","","","html-keyboard-response","50","168631","0.0-7.4-2.4","61322447efdb668e0b2e4f21","65801700b94e79b0c0532bf4","6580190f646de80c5e06d84c","null","<p> <font color=""green"" size=""5vw""> Correct match! </font> <br> <br> <font color=""green"" size=""8vw""> + $0.07 </font> </p>","null","feedback","","","","","","","0.3","0.07"
"","","","","","html-keyboard-response","51","169539","0.0-7.5-0.5","61322447efdb668e0b2e4f21","65801700b94e79b0c0532bf4","6580190f646de80c5e06d84c","906","
            
        <div style=""text-align: center; position: fixed; top: 5vh; left: 40vw;"">
            <div style=""margin:0 auto; width: 20vw; top: 8vh; font-size: 2vw""> 
            <font color=""green""> Bonus : $0.3 </font>
            </div>
        </div>
    
            <p> Please press any key to continue to the next movie.</p>
            <p> Remember your choices : <p>
            <div class=""container"">
                <div class=""photos"">
                    <img class=""image"" src=./stimuli//pack_noise_shapes_3/cat_1/prototype_1.png>
                    <span class=""word""><b>Press left arrow key if the shape looks like this one.</b></span>
                </div>
                <div class=""photos"">
                    <img class=""image"" src=./stimuli//pack_noise_shapes_3/cat_2/prototype_2.png>
                    <div class=""word""><b>Press right arrow key if the shape looks like this one.</b></div>
                </div>
            </div>
        ","arrowleft","ITI","","","","","","","",""
"","","","","","html-keyboard-response","52","171640","0.0-7.5-1.5","61322447efdb668e0b2e4f21","65801700b94e79b0c0532bf4","6580190f646de80c5e06d84c","2098","./stimuli//pack_noise_shapes_3/cat_2/diff_2/ex_2_2_9.mp4","arrowright","response","ArrowRight","9","2","2","test","true","",""
"","","","","","html-keyboard-response","53","173151","0.0-7.5-2.5","61322447efdb668e0b2e4f21","65801700b94e79b0c0532bf4","6580190f646de80c5e06d84c","null","<p> <font color=""green"" size=""5vw""> Correct match! </font> <br> <br> <font color=""green"" size=""8vw""> + $0.07 </font> </p>","null","feedback","","","","","","","0.37","0.07"
"","","","","","html-keyboard-response","54","173731","0.0-7.6-0.6","61322447efdb668e0b2e4f21","65801700b94e79b0c0532bf4","6580190f646de80c5e06d84c","579","
            
        <div style=""text-align: center; position: fixed; top: 5vh; left: 40vw;"">
            <div style=""margin:0 auto; width: 20vw; top: 8vh; font-size: 2vw""> 
            <font color=""green""> Bonus : $0.37 </font>
            </div>
        </div>
    
            <p> Please press any key to continue to the next movie.</p>
            <p> Remember your choices : <p>
            <div class=""container"">
                <div class=""photos"">
                    <img class=""image"" src=./stimuli//pack_noise_shapes_3/cat_1/prototype_1.png>
                    <span class=""word""><b>Press left arrow key if the shape looks like this one.</b></span>
                </div>
                <div class=""photos"">
                    <img class=""image"" src=./stimuli//pack_noise_shapes_3/cat_2/prototype_2.png>
                    <div class=""word""><b>Press right arrow key if the shape looks like this one.</b></div>
                </div>
            </div>
        ","arrowleft","ITI","","","","","","","",""
"","","","","","html-keyboard-response","55","176014","0.0-7.6-1.6","61322447efdb668e0b2e4f21","65801700b94e79b0c0532bf4","6580190f646de80c5e06d84c","2281","./stimuli//pack_noise_shapes_3/cat_2/diff_2/ex_2_2_6.mp4","arrowright","response","ArrowRight","6","2","2","test","true","",""
"","","","","","html-keyboard-response","56","177520","0.0-7.6-2.6","61322447efdb668e0b2e4f21","65801700b94e79b0c0532bf4","6580190f646de80c5e06d84c","null","<p> <font color=""green"" size=""5vw""> Correct match! </font> <br> <br> <font color=""green"" size=""8vw""> + $0.06 </font> </p>","null","feedback","","","","","","","0.43","0.06"
"","","","","","html-keyboard-response","57","178163","0.0-7.7-0.7","61322447efdb668e0b2e4f21","65801700b94e79b0c0532bf4","6580190f646de80c5e06d84c","642","
            
        <div style=""text-align: center; position: fixed; top: 5vh; left: 40vw;"">
            <div style=""margin:0 auto; width: 20vw; top: 8vh; font-size: 2vw""> 
            <font color=""green""> Bonus : $0.43 </font>
            </div>
        </div>
    
            <p> Please press any key to continue to the next movie.</p>
            <p> Remember your choices : <p>
            <div class=""container"">
                <div class=""photos"">
                    <img class=""image"" src=./stimuli//pack_noise_shapes_3/cat_1/prototype_1.png>
                    <span class=""word""><b>Press left arrow key if the shape looks like this one.</b></span>
                </div>
                <div class=""photos"">
                    <img class=""image"" src=./stimuli//pack_noise_shapes_3/cat_2/prototype_2.png>
                    <div class=""word""><b>Press right arrow key if the shape looks like this one.</b></div>
                </div>
            </div>
        ","arrowleft","ITI","","","","","","","",""
"","","","","","html-keyboard-response","58","181217","0.0-7.7-1.7","61322447efdb668e0b2e4f21","65801700b94e79b0c0532bf4","6580190f646de80c5e06d84c","3050","./stimuli//pack_noise_shapes_3/cat_2/diff_2/ex_2_2_4.mp4","arrowleft","response","ArrowRight","4","2","2","test","false","",""
"","","","","","html-keyboard-response","59","186230","0.0-7.7-2.7","61322447efdb668e0b2e4f21","65801700b94e79b0c0532bf4","6580190f646de80c5e06d84c","null","<p> <font color=""red"" size=""5vw""> Wrong match! </font> <br> <br> <font color=""red"" size=""8vw""> - $0.1 </font> </p>","null","feedback","","","","","","","0.33","-0.1"
"","","","","","html-keyboard-response","60","187092","0.0-7.8-0.8","61322447efdb668e0b2e4f21","65801700b94e79b0c0532bf4","6580190f646de80c5e06d84c","860","
            
        <div style=""text-align: center; position: fixed; top: 5vh; left: 40vw;"">
            <div style=""margin:0 auto; width: 20vw; top: 8vh; font-size: 2vw""> 
            <font color=""green""> Bonus : $0.33 </font>
            </div>
        </div>
    
            <p> Please press any key to continue to the next movie.</p>
            <p> Remember your choices : <p>
            <div class=""container"">
                <div class=""photos"">
                    <img class=""image"" src=./stimuli//pack_noise_shapes_3/cat_1/prototype_1.png>
                    <span class=""word""><b>Press left arrow key if the shape looks like this one.</b></span>
                </div>
                <div class=""photos"">
                    <img class=""image"" src=./stimuli//pack_noise_shapes_3/cat_2/prototype_2.png>
                    <div class=""word""><b>Press right arrow key if the shape looks like this one.</b></div>
                </div>
            </div>
        ","arrowright","ITI","","","","","","","",""
"","","","","","html-keyboard-response","61","189358","0.0-7.8-1.8","61322447efdb668e0b2e4f21","65801700b94e79b0c0532bf4","6580190f646de80c5e06d84c","2263","./stimuli//pack_noise_shapes_3/cat_2/diff_2/ex_2_2_13.mp4","arrowright","response","ArrowRight","13","2","2","test","true","",""
"","","","","","html-keyboard-response","62","190865","0.0-7.8-2.8","61322447efdb668e0b2e4f21","65801700b94e79b0c0532bf4","6580190f646de80c5e06d84c","null","<p> <font color=""green"" size=""5vw""> Correct match! </font> <br> <br> <font color=""green"" size=""8vw""> + $0.11 </font> </p>","null","feedback","","","","","","","0.44","0.11"
"","","","","","html-keyboard-response","63","191700","0.0-7.9-0.9","61322447efdb668e0b2e4f21","65801700b94e79b0c0532bf4","6580190f646de80c5e06d84c","834","
            
        <div style=""text-align: center; position: fixed; top: 5vh; left: 40vw;"">
            <div style=""margin:0 auto; width: 20vw; top: 8vh; font-size: 2vw""> 
            <font color=""green""> Bonus : $0.44 </font>
            </div>
        </div>
    
            <p> Please press any key to continue to the next movie.</p>
            <p> Remember your choices : <p>
            <div class=""container"">
                <div class=""photos"">
                    <img class=""image"" src=./stimuli//pack_noise_shapes_3/cat_1/prototype_1.png>
                    <span class=""word""><b>Press left arrow key if the shape looks like this one.</b></span>
                </div>
                <div class=""photos"">
                    <img class=""image"" src=./stimuli//pack_noise_shapes_3/cat_2/prototype_2.png>
                    <div class=""word""><b>Press right arrow key if the shape looks like this one.</b></div>
                </div>
            </div>
        ","arrowright","ITI","","","","","","","",""
"","","","","","html-keyboard-response","64","194380","0.0-7.9-1.9","61322447efdb668e0b2e4f21","65801700b94e79b0c0532bf4","6580190f646de80c5e06d84c","2678","./stimuli//pack_noise_shapes_3/cat_1/diff_2/ex_1_2_9.mp4","arrowleft","response","ArrowLeft","9","1","2","test","true","",""
"","","","","","html-keyboard-response","65","195893","0.0-7.9-2.9","61322447efdb668e0b2e4f21","65801700b94e79b0c0532bf4","6580190f646de80c5e06d84c","null","<p> <font color=""green"" size=""5vw""> Correct match! </font> <br> <br> <font color=""green"" size=""8vw""> + $0.11 </font> </p>","null","feedback","","","","","","","0.55","0.11"
"","","","","","html-keyboard-response","66","196573","0.0-7.10-0.10","61322447efdb668e0b2e4f21","65801700b94e79b0c0532bf4","6580190f646de80c5e06d84c","679","
            
        <div style=""text-align: center; position: fixed; top: 5vh; left: 40vw;"">
            <div style=""margin:0 auto; width: 20vw; top: 8vh; font-size: 2vw""> 
            <font color=""green""> Bonus : $0.55 </font>
            </div>
        </div>
    
            <p> Please press any key to continue to the next movie.</p>
            <p> Remember your choices : <p>
            <div class=""container"">
                <div class=""photos"">
                    <img class=""image"" src=./stimuli//pack_noise_shapes_3/cat_1/prototype_1.png>
                    <span class=""word""><b>Press left arrow key if the shape looks like this one.</b></span>
                </div>
                <div class=""photos"">
                    <img class=""image"" src=./stimuli//pack_noise_shapes_3/cat_2/prototype_2.png>
                    <div class=""word""><b>Press right arrow key if the shape looks like this one.</b></div>
                </div>
            </div>
        ","arrowleft","ITI","","","","","","","",""
"","","","","","html-keyboard-response","67","198825","0.0-7.10-1.10","61322447efdb668e0b2e4f21","65801700b94e79b0c0532bf4","6580190f646de80c5e06d84c","2250","./stimuli//pack_noise_shapes_3/cat_2/diff_3/ex_2_3_17.mp4","arrowright","response","ArrowRight","17","2","3","test","true","",""
"","","","","","html-keyboard-response","68","200327","0.0-7.10-2.10","61322447efdb668e0b2e4f21","65801700b94e79b0c0532bf4","6580190f646de80c5e06d84c","null","<p> <font color=""green"" size=""5vw""> Correct match! </font> <br> <br> <font color=""green"" size=""8vw""> + $0.11 </font> </p>","null","feedback","","","","","","","0.66","0.11"
"","","","","","html-keyboard-response","69","200757","0.0-7.11-0.11","61322447efdb668e0b2e4f21","65801700b94e79b0c0532bf4","6580190f646de80c5e06d84c","428","
            
        <div style=""text-align: center; position: fixed; top: 5vh; left: 40vw;"">
            <div style=""margin:0 auto; width: 20vw; top: 8vh; font-size: 2vw""> 
            <font color=""green""> Bonus : $0.66 </font>
            </div>
        </div>
    
            <p> Please press any key to continue to the next movie.</p>
            <p> Remember your choices : <p>
            <div class=""container"">
                <div class=""photos"">
                    <img class=""image"" src=./stimuli//pack_noise_shapes_3/cat_1/prototype_1.png>
                    <span class=""word""><b>Press left arrow key if the shape looks like this one.</b></span>
                </div>
                <div class=""photos"">
                    <img class=""image"" src=./stimuli//pack_noise_shapes_3/cat_2/prototype_2.png>
                    <div class=""word""><b>Press right arrow key if the shape looks like this one.</b></div>
                </div>
            </div>
        ","arrowright","ITI","","","","","","","",""
"","","","","","html-keyboard-response","70","203031","0.0-7.11-1.11","61322447efdb668e0b2e4f21","65801700b94e79b0c0532bf4","6580190f646de80c5e06d84c","2273","./stimuli//pack_noise_shapes_3/cat_1/diff_3/ex_1_3_5.mp4","arrowleft","response","ArrowLeft","5","1","3","test","true","",""
"","","","","","html-keyboard-response","71","204539","0.0-7.11-2.11","61322447efdb668e0b2e4f21","65801700b94e79b0c0532bf4","6580190f646de80c5e06d84c","null","<p> <font color=""green"" size=""5vw""> Correct match! </font> <br> <br> <font color=""green"" size=""8vw""> + $0.11 </font> </p>","null","feedback","","","","","","","0.77","0.11"
"","","","","","html-keyboard-response","72","204978","0.0-7.12-0.12","61322447efdb668e0b2e4f21","65801700b94e79b0c0532bf4","6580190f646de80c5e06d84c","437","
            
        <div style=""text-align: center; position: fixed; top: 5vh; left: 40vw;"">
            <div style=""margin:0 auto; width: 20vw; top: 8vh; font-size: 2vw""> 
            <font color=""green""> Bonus : $0.77 </font>
            </div>
        </div>
    
            <p> Please press any key to continue to the next movie.</p>
            <p> Remember your choices : <p>
            <div class=""container"">
                <div class=""photos"">
                    <img class=""image"" src=./stimuli//pack_noise_shapes_3/cat_1/prototype_1.png>
                    <span class=""word""><b>Press left arrow key if the shape looks like this one.</b></span>
                </div>
                <div class=""photos"">
                    <img class=""image"" src=./stimuli//pack_noise_shapes_3/cat_2/prototype_2.png>
                    <div class=""word""><b>Press right arrow key if the shape looks like this one.</b></div>
                </div>
            </div>
        ","arrowleft","ITI","","","","","","","",""
"","","","","","html-keyboard-response","73","207202","0.0-7.12-1.12","61322447efdb668e0b2e4f21","65801700b94e79b0c0532bf4","6580190f646de80c5e06d84c","2222","./stimuli//pack_noise_shapes_3/cat_1/diff_3/ex_1_3_8.mp4","arrowleft","response","ArrowLeft","8","1","3","test","true","",""
"","","","","","html-keyboard-response","74","208703","0.0-7.12-2.12","61322447efdb668e0b2e4f21","65801700b94e79b0c0532bf4","6580190f646de80c5e06d84c","null","<p> <font color=""green"" size=""5vw""> Correct match! </font> <br> <br> <font color=""green"" size=""8vw""> + $0.11 </font> </p>","null","feedback","","","","","","","0.88","0.11"
"","","","","","html-keyboard-response","75","210031","0.0-7.13-0.13","61322447efdb668e0b2e4f21","65801700b94e79b0c0532bf4","6580190f646de80c5e06d84c","1326","
            
        <div style=""text-align: center; position: fixed; top: 5vh; left: 40vw;"">
            <div style=""margin:0 auto; width: 20vw; top: 8vh; font-size: 2vw""> 
            <font color=""green""> Bonus : $0.88 </font>
            </div>
        </div>
    
            <p> Please press any key to continue to the next movie.</p>
            <p> Remember your choices : <p>
            <div class=""container"">
                <div class=""photos"">
                    <img class=""image"" src=./stimuli//pack_noise_shapes_3/cat_1/prototype_1.png>
                    <span class=""word""><b>Press left arrow key if the shape looks like this one.</b></span>
                </div>
                <div class=""photos"">
                    <img class=""image"" src=./stimuli//pack_noise_shapes_3/cat_2/prototype_2.png>
                    <div class=""word""><b>Press right arrow key if the shape looks like this one.</b></div>
                </div>
            </div>
        ","arrowleft","ITI","","","","","","","",""
"","","","","","html-keyboard-response","76","213250","0.0-7.13-1.13","61322447efdb668e0b2e4f21","65801700b94e79b0c0532bf4","6580190f646de80c5e06d84c","3217","./stimuli//pack_noise_shapes_3/cat_1/diff_3/ex_1_3_15.mp4","arrowleft","response","ArrowLeft","15","1","3","test","true","",""
"","","","","","html-keyboard-response","77","214761","0.0-7.13-2.13","61322447efdb668e0b2e4f21","65801700b94e79b0c0532bf4","6580190f646de80c5e06d84c","null","<p> <font color=""green"" size=""5vw""> Correct match! </font> <br> <br> <font color=""green"" size=""8vw""> + $0.1 </font> </p>","null","feedback","","","","","","","0.98","0.1"
"","","","","","html-keyboard-response","78","215407","0.0-7.14-0.14","61322447efdb668e0b2e4f21","65801700b94e79b0c0532bf4","6580190f646de80c5e06d84c","645","
            
        <div style=""text-align: center; position: fixed; top: 5vh; left: 40vw;"">
            <div style=""margin:0 auto; width: 20vw; top: 8vh; font-size: 2vw""> 
            <font color=""green""> Bonus : $0.98 </font>
            </div>
        </div>
    
            <p> Please press any key to continue to the next movie.</p>
            <p> Remember your choices : <p>
            <div class=""container"">
                <div class=""photos"">
                    <img class=""image"" src=./stimuli//pack_noise_shapes_3/cat_1/prototype_1.png>
                    <span class=""word""><b>Press left arrow key if the shape looks like this one.</b></span>
                </div>
                <div class=""photos"">
                    <img class=""image"" src=./stimuli//pack_noise_shapes_3/cat_2/prototype_2.png>
                    <div class=""word""><b>Press right arrow key if the shape looks like this one.</b></div>
                </div>
            </div>
        ","arrowleft","ITI","","","","","","","",""
"","","","","","html-keyboard-response","79","217924","0.0-7.14-1.14","61322447efdb668e0b2e4f21","65801700b94e79b0c0532bf4","6580190f646de80c5e06d84c","2515","./stimuli//pack_noise_shapes_3/cat_1/diff_3/ex_1_3_17.mp4","arrowleft","response","ArrowLeft","17","1","3","test","true","",""
"","","","","","html-keyboard-response","80","219435","0.0-7.14-2.14","61322447efdb668e0b2e4f21","65801700b94e79b0c0532bf4","6580190f646de80c5e06d84c","null","<p> <font color=""green"" size=""5vw""> Correct match! </font> <br> <br> <font color=""green"" size=""8vw""> + $0.11 </font> </p>","null","feedback","","","","","","","1.09","0.11"
"","","","","","html-keyboard-response","81","220188","0.0-7.15-0.15","61322447efdb668e0b2e4f21","65801700b94e79b0c0532bf4","6580190f646de80c5e06d84c","752","
            
        <div style=""text-align: center; position: fixed; top: 5vh; left: 40vw;"">
            <div style=""margin:0 auto; width: 20vw; top: 8vh; font-size: 2vw""> 
            <font color=""green""> Bonus : $1.09 </font>
            </div>
        </div>
    
            <p> Please press any key to continue to the next movie.</p>
            <p> Remember your choices : <p>
            <div class=""container"">
                <div class=""photos"">
                    <img class=""image"" src=./stimuli//pack_noise_shapes_3/cat_1/prototype_1.png>
                    <span class=""word""><b>Press left arrow key if the shape looks like this one.</b></span>
                </div>
                <div class=""photos"">
                    <img class=""image"" src=./stimuli//pack_noise_shapes_3/cat_2/prototype_2.png>
                    <div class=""word""><b>Press right arrow key if the shape looks like this one.</b></div>
                </div>
            </div>
        ","arrowleft","ITI","","","","","","","",""
"","","","","","html-keyboard-response","82","222846","0.0-7.15-1.15","61322447efdb668e0b2e4f21","65801700b94e79b0c0532bf4","6580190f646de80c5e06d84c","2655","./stimuli//pack_noise_shapes_3/cat_2/diff_4/ex_2_4_16.mp4","arrowleft","response","ArrowRight","16","2","4","test","false","",""
"","","","","","html-keyboard-response","83","227854","0.0-7.15-2.15","61322447efdb668e0b2e4f21","65801700b94e79b0c0532bf4","6580190f646de80c5e06d84c","null","<p> <font color=""red"" size=""5vw""> Wrong match! </font> <br> <br> <font color=""red"" size=""8vw""> - $0.1 </font> </p>","null","feedback","","","","","","","0.99","-0.1"
"","","","","","html-keyboard-response","84","228439","0.0-7.16-0.16","61322447efdb668e0b2e4f21","65801700b94e79b0c0532bf4","6580190f646de80c5e06d84c","584","
            
        <div style=""text-align: center; position: fixed; top: 5vh; left: 40vw;"">
            <div style=""margin:0 auto; width: 20vw; top: 8vh; font-size: 2vw""> 
            <font color=""green""> Bonus : $0.99 </font>
            </div>
        </div>
    
            <p> Please press any key to continue to the next movie.</p>
            <p> Remember your choices : <p>
            <div class=""container"">
                <div class=""photos"">
                    <img class=""image"" src=./stimuli//pack_noise_shapes_3/cat_1/prototype_1.png>
                    <span class=""word""><b>Press left arrow key if the shape looks like this one.</b></span>
                </div>
                <div class=""photos"">
                    <img class=""image"" src=./stimuli//pack_noise_shapes_3/cat_2/prototype_2.png>
                    <div class=""word""><b>Press right arrow key if the shape looks like this one.</b></div>
                </div>
            </div>
        ","arrowleft","ITI","","","","","","","",""
"","","","","","html-keyboard-response","85","231787","0.0-7.16-1.16","61322447efdb668e0b2e4f21","65801700b94e79b0c0532bf4","6580190f646de80c5e06d84c","3346","./stimuli//pack_noise_shapes_3/cat_1/diff_4/ex_1_4_2.mp4","arrowleft","response","ArrowLeft","2","1","4","test","true","",""
"","","","","","html-keyboard-response","86","233301","0.0-7.16-2.16","61322447efdb668e0b2e4f21","65801700b94e79b0c0532bf4","6580190f646de80c5e06d84c","null","<p> <font color=""green"" size=""5vw""> Correct match! </font> <br> <br> <font color=""green"" size=""8vw""> + $0.1 </font> </p>","null","feedback","","","","","","","1.09","0.1"
"","","","","","html-keyboard-response","87","233803","0.0-7.17-0.17","61322447efdb668e0b2e4f21","65801700b94e79b0c0532bf4","6580190f646de80c5e06d84c","500","
            
        <div style=""text-align: center; position: fixed; top: 5vh; left: 40vw;"">
            <div style=""margin:0 auto; width: 20vw; top: 8vh; font-size: 2vw""> 
            <font color=""green""> Bonus : $1.09 </font>
            </div>
        </div>
    
            <p> Please press any key to continue to the next movie.</p>
            <p> Remember your choices : <p>
            <div class=""container"">
                <div class=""photos"">
                    <img class=""image"" src=./stimuli//pack_noise_shapes_3/cat_1/prototype_1.png>
                    <span class=""word""><b>Press left arrow key if the shape looks like this one.</b></span>
                </div>
                <div class=""photos"">
                    <img class=""image"" src=./stimuli//pack_noise_shapes_3/cat_2/prototype_2.png>
                    <div class=""word""><b>Press right arrow key if the shape looks like this one.</b></div>
                </div>
            </div>
        ","arrowleft","ITI","","","","","","","",""
"","","","","","html-keyboard-response","88","236799","0.0-7.17-1.17","61322447efdb668e0b2e4f21","65801700b94e79b0c0532bf4","6580190f646de80c5e06d84c","2994","./stimuli//pack_noise_shapes_3/cat_1/diff_4/ex_1_4_16.mp4","arrowleft","response","ArrowLeft","16","1","4","test","true","",""
"","","","","","html-keyboard-response","89","238310","0.0-7.17-2.17","61322447efdb668e0b2e4f21","65801700b94e79b0c0532bf4","6580190f646de80c5e06d84c","null","<p> <font color=""green"" size=""5vw""> Correct match! </font> <br> <br> <font color=""green"" size=""8vw""> + $0.1 </font> </p>","null","feedback","","","","","","","1.19","0.1"
"","","","","","html-keyboard-response","90","238802","0.0-7.18-0.18","61322447efdb668e0b2e4f21","65801700b94e79b0c0532bf4","6580190f646de80c5e06d84c","490","
            
        <div style=""text-align: center; position: fixed; top: 5vh; left: 40vw;"">
            <div style=""margin:0 auto; width: 20vw; top: 8vh; font-size: 2vw""> 
            <font color=""green""> Bonus : $1.19 </font>
            </div>
        </div>
    
            <p> Please press any key to continue to the next movie.</p>
            <p> Remember your choices : <p>
            <div class=""container"">
                <div class=""photos"">
                    <img class=""image"" src=./stimuli//pack_noise_shapes_3/cat_1/prototype_1.png>
                    <span class=""word""><b>Press left arrow key if the shape looks like this one.</b></span>
                </div>
                <div class=""photos"">
                    <img class=""image"" src=./stimuli//pack_noise_shapes_3/cat_2/prototype_2.png>
                    <div class=""word""><b>Press right arrow key if the shape looks like this one.</b></div>
                </div>
            </div>
        ","arrowleft","ITI","","","","","","","",""
"","","","","","html-keyboard-response","91","241438","0.0-7.18-1.18","61322447efdb668e0b2e4f21","65801700b94e79b0c0532bf4","6580190f646de80c5e06d84c","2634","./stimuli//pack_noise_shapes_3/cat_1/diff_4/ex_1_4_15.mp4","arrowleft","response","ArrowLeft","15","1","4","test","true","",""
"","","","","","html-keyboard-response","92","242953","0.0-7.18-2.18","61322447efdb668e0b2e4f21","65801700b94e79b0c0532bf4","6580190f646de80c5e06d84c","null","<p> <font color=""green"" size=""5vw""> Correct match! </font> <br> <br> <font color=""green"" size=""8vw""> + $0.11 </font> </p>","null","feedback","","","","","","","1.3","0.11"
"","","","","","html-keyboard-response","93","243741","0.0-7.19-0.19","61322447efdb668e0b2e4f21","65801700b94e79b0c0532bf4","6580190f646de80c5e06d84c","787","
            
        <div style=""text-align: center; position: fixed; top: 5vh; left: 40vw;"">
            <div style=""margin:0 auto; width: 20vw; top: 8vh; font-size: 2vw""> 
            <font color=""green""> Bonus : $1.3 </font>
            </div>
        </div>
    
            <p> Please press any key to continue to the next movie.</p>
            <p> Remember your choices : <p>
            <div class=""container"">
                <div class=""photos"">
                    <img class=""image"" src=./stimuli//pack_noise_shapes_3/cat_1/prototype_1.png>
                    <span class=""word""><b>Press left arrow key if the shape looks like this one.</b></span>
                </div>
                <div class=""photos"">
                    <img class=""image"" src=./stimuli//pack_noise_shapes_3/cat_2/prototype_2.png>
                    <div class=""word""><b>Press right arrow key if the shape looks like this one.</b></div>
                </div>
            </div>
        ","arrowleft","ITI","","","","","","","",""
"","","","","","html-keyboard-response","94","247355","0.0-7.19-1.19","61322447efdb668e0b2e4f21","65801700b94e79b0c0532bf4","6580190f646de80c5e06d84c","3612","./stimuli//pack_noise_shapes_3/cat_2/diff_4/ex_2_4_5.mp4","arrowright","response","ArrowRight","5","2","4","test","true","",""
"","","","","","html-keyboard-response","95","248863","0.0-7.19-2.19","61322447efdb668e0b2e4f21","65801700b94e79b0c0532bf4","6580190f646de80c5e06d84c","null","<p> <font color=""green"" size=""5vw""> Correct match! </font> <br> <br> <font color=""green"" size=""8vw""> + $0.1 </font> </p>","null","feedback","","","","","","","1.4","0.1"
"","","","","","html-keyboard-response","96","249487","0.0-7.20-0.20","61322447efdb668e0b2e4f21","65801700b94e79b0c0532bf4","6580190f646de80c5e06d84c","623","
            
        <div style=""text-align: center; position: fixed; top: 5vh; left: 40vw;"">
            <div style=""margin:0 auto; width: 20vw; top: 8vh; font-size: 2vw""> 
            <font color=""green""> Bonus : $1.4 </font>
            </div>
        </div>
    
            <p> Please press any key to continue to the next movie.</p>
            <p> Remember your choices : <p>
            <div class=""container"">
                <div class=""photos"">
                    <img class=""image"" src=./stimuli//pack_noise_shapes_3/cat_1/prototype_1.png>
                    <span class=""word""><b>Press left arrow key if the shape looks like this one.</b></span>
                </div>
                <div class=""photos"">
                    <img class=""image"" src=./stimuli//pack_noise_shapes_3/cat_2/prototype_2.png>
                    <div class=""word""><b>Press right arrow key if the shape looks like this one.</b></div>
                </div>
            </div>
        ","arrowleft","ITI","","","","","","","",""
"","","","","","html-keyboard-response","97","252432","0.0-7.20-1.20","61322447efdb668e0b2e4f21","65801700b94e79b0c0532bf4","6580190f646de80c5e06d84c","2943","./stimuli//pack_noise_shapes_3/cat_2/diff_5/ex_2_5_9.mp4","arrowright","response","ArrowRight","9","2","5","test","true","",""
"","","","","","html-keyboard-response","98","253934","0.0-7.20-2.20","61322447efdb668e0b2e4f21","65801700b94e79b0c0532bf4","6580190f646de80c5e06d84c","null","<p> <font color=""green"" size=""5vw""> Correct match! </font> <br> <br> <font color=""green"" size=""8vw""> + $0.11 </font> </p>","null","feedback","","","","","","","1.51","0.11"
"","","","","","html-keyboard-response","99","255533","0.0-7.21-0.21","61322447efdb668e0b2e4f21","65801700b94e79b0c0532bf4","6580190f646de80c5e06d84c","1597","
            
        <div style=""text-align: center; position: fixed; top: 5vh; left: 40vw;"">
            <div style=""margin:0 auto; width: 20vw; top: 8vh; font-size: 2vw""> 
            <font color=""green""> Bonus : $1.51 </font>
            </div>
        </div>
    
            <p> Please press any key to continue to the next movie.</p>
            <p> Remember your choices : <p>
            <div class=""container"">
                <div class=""photos"">
                    <img class=""image"" src=./stimuli//pack_noise_shapes_3/cat_1/prototype_1.png>
                    <span class=""word""><b>Press left arrow key if the shape looks like this one.</b></span>
                </div>
                <div class=""photos"">
                    <img class=""image"" src=./stimuli//pack_noise_shapes_3/cat_2/prototype_2.png>
                    <div class=""word""><b>Press right arrow key if the shape looks like this one.</b></div>
                </div>
            </div>
        ","arrowright","ITI","","","","","","","",""
"","","","","","html-keyboard-response","100","258568","0.0-7.21-1.21","61322447efdb668e0b2e4f21","65801700b94e79b0c0532bf4","6580190f646de80c5e06d84c","3033","./stimuli//pack_noise_shapes_3/cat_2/diff_5/ex_2_5_3.mp4","arrowright","response","ArrowRight","3","2","5","test","true","",""
"","","","","","html-keyboard-response","101","260074","0.0-7.21-2.21","61322447efdb668e0b2e4f21","65801700b94e79b0c0532bf4","6580190f646de80c5e06d84c","null","<p> <font color=""green"" size=""5vw""> Correct match! </font> <br> <br> <font color=""green"" size=""8vw""> + $0.1 </font> </p>","null","feedback","","","","","","","1.61","0.1"
"","","","","","html-keyboard-response","102","260831","0.0-7.22-0.22","61322447efdb668e0b2e4f21","65801700b94e79b0c0532bf4","6580190f646de80c5e06d84c","755","
            
        <div style=""text-align: center; position: fixed; top: 5vh; left: 40vw;"">
            <div style=""margin:0 auto; width: 20vw; top: 8vh; font-size: 2vw""> 
            <font color=""green""> Bonus : $1.61 </font>
            </div>
        </div>
    
            <p> Please press any key to continue to the next movie.</p>
            <p> Remember your choices : <p>
            <div class=""container"">
                <div class=""photos"">
                    <img class=""image"" src=./stimuli//pack_noise_shapes_3/cat_1/prototype_1.png>
                    <span class=""word""><b>Press left arrow key if the shape looks like this one.</b></span>
                </div>
                <div class=""photos"">
                    <img class=""image"" src=./stimuli//pack_noise_shapes_3/cat_2/prototype_2.png>
                    <div class=""word""><b>Press right arrow key if the shape looks like this one.</b></div>
                </div>
            </div>
        ","arrowright","ITI","","","","","","","",""
"","","","","","html-keyboard-response","103","263026","0.0-7.22-1.22","61322447efdb668e0b2e4f21","65801700b94e79b0c0532bf4","6580190f646de80c5e06d84c","2193","./stimuli//pack_noise_shapes_3/cat_1/diff_5/ex_1_5_1.mp4","arrowleft","response","ArrowLeft","1","1","5","test","true","",""
"","","","","","html-keyboard-response","104","264537","0.0-7.22-2.22","61322447efdb668e0b2e4f21","65801700b94e79b0c0532bf4","6580190f646de80c5e06d84c","null","<p> <font color=""green"" size=""5vw""> Correct match! </font> <br> <br> <font color=""green"" size=""8vw""> + $0.11 </font> </p>","null","feedback","","","","","","","1.72","0.11"
"","","","","","html-keyboard-response","105","265701","0.0-7.23-0.23","61322447efdb668e0b2e4f21","65801700b94e79b0c0532bf4","6580190f646de80c5e06d84c","1163","
            
        <div style=""text-align: center; position: fixed; top: 5vh; left: 40vw;"">
            <div style=""margin:0 auto; width: 20vw; top: 8vh; font-size: 2vw""> 
            <font color=""green""> Bonus : $1.72 </font>
            </div>
        </div>
    
            <p> Please press any key to continue to the next movie.</p>
            <p> Remember your choices : <p>
            <div class=""container"">
                <div class=""photos"">
                    <img class=""image"" src=./stimuli//pack_noise_shapes_3/cat_1/prototype_1.png>
                    <span class=""word""><b>Press left arrow key if the shape looks like this one.</b></span>
                </div>
                <div class=""photos"">
                    <img class=""image"" src=./stimuli//pack_noise_shapes_3/cat_2/prototype_2.png>
                    <div class=""word""><b>Press right arrow key if the shape looks like this one.</b></div>
                </div>
            </div>
        ","arrowleft","ITI","","","","","","","",""
"","","","","","html-keyboard-response","106","268097","0.0-7.23-1.23","61322447efdb668e0b2e4f21","65801700b94e79b0c0532bf4","6580190f646de80c5e06d84c","2394","./stimuli//pack_noise_shapes_3/cat_2/diff_5/ex_2_5_13.mp4","arrowleft","response","ArrowRight","13","2","5","test","false","",""
"","","","","","html-keyboard-response","107","273101","0.0-7.23-2.23","61322447efdb668e0b2e4f21","65801700b94e79b0c0532bf4","6580190f646de80c5e06d84c","null","<p> <font color=""red"" size=""5vw""> Wrong match! </font> <br> <br> <font color=""red"" size=""8vw""> - $0.1 </font> </p>","null","feedback","","","","","","","1.62","-0.1"
"","","","","","html-keyboard-response","108","273829","0.0-7.24-0.24","61322447efdb668e0b2e4f21","65801700b94e79b0c0532bf4","6580190f646de80c5e06d84c","726","
            
        <div style=""text-align: center; position: fixed; top: 5vh; left: 40vw;"">
            <div style=""margin:0 auto; width: 20vw; top: 8vh; font-size: 2vw""> 
            <font color=""green""> Bonus : $1.62 </font>
            </div>
        </div>
    
            <p> Please press any key to continue to the next movie.</p>
            <p> Remember your choices : <p>
            <div class=""container"">
                <div class=""photos"">
                    <img class=""image"" src=./stimuli//pack_noise_shapes_3/cat_1/prototype_1.png>
                    <span class=""word""><b>Press left arrow key if the shape looks like this one.</b></span>
                </div>
                <div class=""photos"">
                    <img class=""image"" src=./stimuli//pack_noise_shapes_3/cat_2/prototype_2.png>
                    <div class=""word""><b>Press right arrow key if the shape looks like this one.</b></div>
                </div>
            </div>
        ","arrowleft","ITI","","","","","","","",""
"","","","","","html-keyboard-response","109","276790","0.0-7.24-1.24","61322447efdb668e0b2e4f21","65801700b94e79b0c0532bf4","6580190f646de80c5e06d84c","2960","./stimuli//pack_noise_shapes_3/cat_2/diff_5/ex_2_5_16.mp4","arrowleft","response","ArrowRight","16","2","5","test","false","",""
"","","","","","html-keyboard-response","110","281799","0.0-7.24-2.24","61322447efdb668e0b2e4f21","65801700b94e79b0c0532bf4","6580190f646de80c5e06d84c","null","<p> <font color=""red"" size=""5vw""> Wrong match! </font> <br> <br> <font color=""red"" size=""8vw""> - $0.1 </font> </p>","null","feedback","","","","","","","1.52","-0.1"
"","","","","","html-keyboard-response","111","282899","0.0-7.25-0.25","61322447efdb668e0b2e4f21","65801700b94e79b0c0532bf4","6580190f646de80c5e06d84c","1099","
            
        <div style=""text-align: center; position: fixed; top: 5vh; left: 40vw;"">
            <div style=""margin:0 auto; width: 20vw; top: 8vh; font-size: 2vw""> 
            <font color=""green""> Bonus : $1.52 </font>
            </div>
        </div>
    
            <p> Please press any key to continue to the next movie.</p>
            <p> Remember your choices : <p>
            <div class=""container"">
                <div class=""photos"">
                    <img class=""image"" src=./stimuli//pack_noise_shapes_3/cat_1/prototype_1.png>
                    <span class=""word""><b>Press left arrow key if the shape looks like this one.</b></span>
                </div>
                <div class=""photos"">
                    <img class=""image"" src=./stimuli//pack_noise_shapes_3/cat_2/prototype_2.png>
                    <div class=""word""><b>Press right arrow key if the shape looks like this one.</b></div>
                </div>
            </div>
        ","arrowleft","ITI","","","","","","","",""
"","","","","","html-keyboard-response","112","285420","0.0-7.25-1.25","61322447efdb668e0b2e4f21","65801700b94e79b0c0532bf4","6580190f646de80c5e06d84c","2519","./stimuli//pack_noise_shapes_3/cat_2/diff_4/ex_2_4_13.mp4","arrowright","response","ArrowRight","13","2","4","test","true","",""
"","","","","","html-keyboard-response","113","286928","0.0-7.25-2.25","61322447efdb668e0b2e4f21","65801700b94e79b0c0532bf4","6580190f646de80c5e06d84c","null","<p> <font color=""green"" size=""5vw""> Correct match! </font> <br> <br> <font color=""green"" size=""8vw""> + $0.11 </font> </p>","null","feedback","","","","","","","1.63","0.11"
"","","","","","html-keyboard-response","114","287995","0.0-7.26-0.26","61322447efdb668e0b2e4f21","65801700b94e79b0c0532bf4","6580190f646de80c5e06d84c","1065","
            
        <div style=""text-align: center; position: fixed; top: 5vh; left: 40vw;"">
            <div style=""margin:0 auto; width: 20vw; top: 8vh; font-size: 2vw""> 
            <font color=""green""> Bonus : $1.63 </font>
            </div>
        </div>
    
            <p> Please press any key to continue to the next movie.</p>
            <p> Remember your choices : <p>
            <div class=""container"">
                <div class=""photos"">
                    <img class=""image"" src=./stimuli//pack_noise_shapes_3/cat_1/prototype_1.png>
                    <span class=""word""><b>Press left arrow key if the shape looks like this one.</b></span>
                </div>
                <div class=""photos"">
                    <img class=""image"" src=./stimuli//pack_noise_shapes_3/cat_2/prototype_2.png>
                    <div class=""word""><b>Press right arrow key if the shape looks like this one.</b></div>
                </div>
            </div>
        ","arrowright","ITI","","","","","","","",""
"","","","","","html-keyboard-response","115","291336","0.0-7.26-1.26","61322447efdb668e0b2e4f21","65801700b94e79b0c0532bf4","6580190f646de80c5e06d84c","3338","./stimuli//pack_noise_shapes_3/cat_1/diff_4/ex_1_4_9.mp4","arrowleft","response","ArrowLeft","9","1","4","test","true","",""
"","","","","","html-keyboard-response","116","292848","0.0-7.26-2.26","61322447efdb668e0b2e4f21","65801700b94e79b0c0532bf4","6580190f646de80c5e06d84c","null","<p> <font color=""green"" size=""5vw""> Correct match! </font> <br> <br> <font color=""green"" size=""8vw""> + $0.1 </font> </p>","null","feedback","","","","","","","1.73","0.1"
"","","","","","html-keyboard-response","117","293419","0.0-7.27-0.27","61322447efdb668e0b2e4f21","65801700b94e79b0c0532bf4","6580190f646de80c5e06d84c","570","
            
        <div style=""text-align: center; position: fixed; top: 5vh; left: 40vw;"">
            <div style=""margin:0 auto; width: 20vw; top: 8vh; font-size: 2vw""> 
            <font color=""green""> Bonus : $1.73 </font>
            </div>
        </div>
    
            <p> Please press any key to continue to the next movie.</p>
            <p> Remember your choices : <p>
            <div class=""container"">
                <div class=""photos"">
                    <img class=""image"" src=./stimuli//pack_noise_shapes_3/cat_1/prototype_1.png>
                    <span class=""word""><b>Press left arrow key if the shape looks like this one.</b></span>
                </div>
                <div class=""photos"">
                    <img class=""image"" src=./stimuli//pack_noise_shapes_3/cat_2/prototype_2.png>
                    <div class=""word""><b>Press right arrow key if the shape looks like this one.</b></div>
                </div>
            </div>
        ","arrowleft","ITI","","","","","","","",""
"","","","","","html-keyboard-response","118","296435","0.0-7.27-1.27","61322447efdb668e0b2e4f21","65801700b94e79b0c0532bf4","6580190f646de80c5e06d84c","3013","./stimuli//pack_noise_shapes_3/cat_1/diff_4/ex_1_4_4.mp4","arrowright","response","ArrowLeft","4","1","4","test","false","",""
"","","","","","html-keyboard-response","119","301440","0.0-7.27-2.27","61322447efdb668e0b2e4f21","65801700b94e79b0c0532bf4","6580190f646de80c5e06d84c","null","<p> <font color=""red"" size=""5vw""> Wrong match! </font> <br> <br> <font color=""red"" size=""8vw""> - $0.1 </font> </p>","null","feedback","","","","","","","1.63","-0.1"
"","","","","","html-keyboard-response","120","302060","0.0-7.28-0.28","61322447efdb668e0b2e4f21","65801700b94e79b0c0532bf4","6580190f646de80c5e06d84c","619","
            
        <div style=""text-align: center; position: fixed; top: 5vh; left: 40vw;"">
            <div style=""margin:0 auto; width: 20vw; top: 8vh; font-size: 2vw""> 
            <font color=""green""> Bonus : $1.63 </font>
            </div>
        </div>
    
            <p> Please press any key to continue to the next movie.</p>
            <p> Remember your choices : <p>
            <div class=""container"">
                <div class=""photos"">
                    <img class=""image"" src=./stimuli//pack_noise_shapes_3/cat_1/prototype_1.png>
                    <span class=""word""><b>Press left arrow key if the shape looks like this one.</b></span>
                </div>
                <div class=""photos"">
                    <img class=""image"" src=./stimuli//pack_noise_shapes_3/cat_2/prototype_2.png>
                    <div class=""word""><b>Press right arrow key if the shape looks like this one.</b></div>
                </div>
            </div>
        ","arrowleft","ITI","","","","","","","",""
"","","","","","html-keyboard-response","121","304921","0.0-7.28-1.28","61322447efdb668e0b2e4f21","65801700b94e79b0c0532bf4","6580190f646de80c5e06d84c","2858","./stimuli//pack_noise_shapes_3/cat_1/diff_4/ex_1_4_2.mp4","arrowright","response","ArrowLeft","2","1","4","test","false","",""
"","","","","","html-keyboard-response","122","309928","0.0-7.28-2.28","61322447efdb668e0b2e4f21","65801700b94e79b0c0532bf4","6580190f646de80c5e06d84c","null","<p> <font color=""red"" size=""5vw""> Wrong match! </font> <br> <br> <font color=""red"" size=""8vw""> - $0.1 </font> </p>","null","feedback","","","","","","","1.53","-0.1"
"","","","","","html-keyboard-response","123","310607","0.0-7.29-0.29","61322447efdb668e0b2e4f21","65801700b94e79b0c0532bf4","6580190f646de80c5e06d84c","677","
            
        <div style=""text-align: center; position: fixed; top: 5vh; left: 40vw;"">
            <div style=""margin:0 auto; width: 20vw; top: 8vh; font-size: 2vw""> 
            <font color=""green""> Bonus : $1.53 </font>
            </div>
        </div>
    
            <p> Please press any key to continue to the next movie.</p>
            <p> Remember your choices : <p>
            <div class=""container"">
                <div class=""photos"">
                    <img class=""image"" src=./stimuli//pack_noise_shapes_3/cat_1/prototype_1.png>
                    <span class=""word""><b>Press left arrow key if the shape looks like this one.</b></span>
                </div>
                <div class=""photos"">
                    <img class=""image"" src=./stimuli//pack_noise_shapes_3/cat_2/prototype_2.png>
                    <div class=""word""><b>Press right arrow key if the shape looks like this one.</b></div>
                </div>
            </div>
        ","arrowleft","ITI","","","","","","","",""
"","","","","","html-keyboard-response","124","313685","0.0-7.29-1.29","61322447efdb668e0b2e4f21","65801700b94e79b0c0532bf4","6580190f646de80c5e06d84c","3075","./stimuli//pack_noise_shapes_3/cat_1/diff_4/ex_1_4_16.mp4","arrowleft","response","ArrowLeft","16","1","4","test","true","",""
"","","","","","html-keyboard-response","125","315188","0.0-7.29-2.29","61322447efdb668e0b2e4f21","65801700b94e79b0c0532bf4","6580190f646de80c5e06d84c","null","<p> <font color=""green"" size=""5vw""> Correct match! </font> <br> <br> <font color=""green"" size=""8vw""> + $0.1 </font> </p>","null","feedback","","","","","","","1.63","0.1"
"","","","","","html-keyboard-response","126","315722","0.0-7.30-0.30","61322447efdb668e0b2e4f21","65801700b94e79b0c0532bf4","6580190f646de80c5e06d84c","533","
            
        <div style=""text-align: center; position: fixed; top: 5vh; left: 40vw;"">
            <div style=""margin:0 auto; width: 20vw; top: 8vh; font-size: 2vw""> 
            <font color=""green""> Bonus : $1.63 </font>
            </div>
        </div>
    
            <p> Please press any key to continue to the next movie.</p>
            <p> Remember your choices : <p>
            <div class=""container"">
                <div class=""photos"">
                    <img class=""image"" src=./stimuli//pack_noise_shapes_3/cat_1/prototype_1.png>
                    <span class=""word""><b>Press left arrow key if the shape looks like this one.</b></span>
                </div>
                <div class=""photos"">
                    <img class=""image"" src=./stimuli//pack_noise_shapes_3/cat_2/prototype_2.png>
                    <div class=""word""><b>Press right arrow key if the shape looks like this one.</b></div>
                </div>
            </div>
        ","arrowleft","ITI","","","","","","","",""
"","","","","","html-keyboard-response","127","318147","0.0-7.30-1.30","61322447efdb668e0b2e4f21","65801700b94e79b0c0532bf4","6580190f646de80c5e06d84c","2422","./stimuli//pack_noise_shapes_3/cat_2/diff_3/ex_2_3_13.mp4","arrowright","response","ArrowRight","13","2","3","test","true","",""
"","","","","","html-keyboard-response","128","319669","0.0-7.30-2.30","61322447efdb668e0b2e4f21","65801700b94e79b0c0532bf4","6580190f646de80c5e06d84c","null","<p> <font color=""green"" size=""5vw""> Correct match! </font> <br> <br> <font color=""green"" size=""8vw""> + $0.11 </font> </p>","null","feedback","","","","","","","1.74","0.11"
"","","","","","html-keyboard-response","129","320438","0.0-7.31-0.31","61322447efdb668e0b2e4f21","65801700b94e79b0c0532bf4","6580190f646de80c5e06d84c","766","
            
        <div style=""text-align: center; position: fixed; top: 5vh; left: 40vw;"">
            <div style=""margin:0 auto; width: 20vw; top: 8vh; font-size: 2vw""> 
            <font color=""green""> Bonus : $1.74 </font>
            </div>
        </div>
    
            <p> Please press any key to continue to the next movie.</p>
            <p> Remember your choices : <p>
            <div class=""container"">
                <div class=""photos"">
                    <img class=""image"" src=./stimuli//pack_noise_shapes_3/cat_1/prototype_1.png>
                    <span class=""word""><b>Press left arrow key if the shape looks like this one.</b></span>
                </div>
                <div class=""photos"">
                    <img class=""image"" src=./stimuli//pack_noise_shapes_3/cat_2/prototype_2.png>
                    <div class=""word""><b>Press right arrow key if the shape looks like this one.</b></div>
                </div>
            </div>
        ","arrowleft","ITI","","","","","","","",""
"","","","","","html-keyboard-response","130","322692","0.0-7.31-1.31","61322447efdb668e0b2e4f21","65801700b94e79b0c0532bf4","6580190f646de80c5e06d84c","2251","./stimuli//pack_noise_shapes_3/cat_2/diff_3/ex_2_3_12.mp4","arrowright","response","ArrowRight","12","2","3","test","true","",""
"","","","","","html-keyboard-response","131","324198","0.0-7.31-2.31","61322447efdb668e0b2e4f21","65801700b94e79b0c0532bf4","6580190f646de80c5e06d84c","null","<p> <font color=""green"" size=""5vw""> Correct match! </font> <br> <br> <font color=""green"" size=""8vw""> + $0.11 </font> </p>","null","feedback","","","","","","","1.85","0.11"
"","","","","","html-keyboard-response","132","324866","0.0-7.32-0.32","61322447efdb668e0b2e4f21","65801700b94e79b0c0532bf4","6580190f646de80c5e06d84c","666","
            
        <div style=""text-align: center; position: fixed; top: 5vh; left: 40vw;"">
            <div style=""margin:0 auto; width: 20vw; top: 8vh; font-size: 2vw""> 
            <font color=""green""> Bonus : $1.85 </font>
            </div>
        </div>
    
            <p> Please press any key to continue to the next movie.</p>
            <p> Remember your choices : <p>
            <div class=""container"">
                <div class=""photos"">
                    <img class=""image"" src=./stimuli//pack_noise_shapes_3/cat_1/prototype_1.png>
                    <span class=""word""><b>Press left arrow key if the shape looks like this one.</b></span>
                </div>
                <div class=""photos"">
                    <img class=""image"" src=./stimuli//pack_noise_shapes_3/cat_2/prototype_2.png>
                    <div class=""word""><b>Press right arrow key if the shape looks like this one.</b></div>
                </div>
            </div>
        ","arrowleft","ITI","","","","","","","",""
"","","","","","html-keyboard-response","133","327061","0.0-7.32-1.32","61322447efdb668e0b2e4f21","65801700b94e79b0c0532bf4","6580190f646de80c5e06d84c","2193","./stimuli//pack_noise_shapes_3/cat_2/diff_3/ex_2_3_16.mp4","arrowright","response","ArrowRight","16","2","3","test","true","",""
"","","","","","html-keyboard-response","134","328569","0.0-7.32-2.32","61322447efdb668e0b2e4f21","65801700b94e79b0c0532bf4","6580190f646de80c5e06d84c","null","<p> <font color=""green"" size=""5vw""> Correct match! </font> <br> <br> <font color=""green"" size=""8vw""> + $0.11 </font> </p>","null","feedback","","","","","","","1.96","0.11"
"","","","","","html-keyboard-response","135","329015","0.0-7.33-0.33","61322447efdb668e0b2e4f21","65801700b94e79b0c0532bf4","6580190f646de80c5e06d84c","445","
            
        <div style=""text-align: center; position: fixed; top: 5vh; left: 40vw;"">
            <div style=""margin:0 auto; width: 20vw; top: 8vh; font-size: 2vw""> 
            <font color=""green""> Bonus : $1.96 </font>
            </div>
        </div>
    
            <p> Please press any key to continue to the next movie.</p>
            <p> Remember your choices : <p>
            <div class=""container"">
                <div class=""photos"">
                    <img class=""image"" src=./stimuli//pack_noise_shapes_3/cat_1/prototype_1.png>
                    <span class=""word""><b>Press left arrow key if the shape looks like this one.</b></span>
                </div>
                <div class=""photos"">
                    <img class=""image"" src=./stimuli//pack_noise_shapes_3/cat_2/prototype_2.png>
                    <div class=""word""><b>Press right arrow key if the shape looks like this one.</b></div>
                </div>
            </div>
        ","arrowleft","ITI","","","","","","","",""
"","","","","","html-keyboard-response","136","331794","0.0-7.33-1.33","61322447efdb668e0b2e4f21","65801700b94e79b0c0532bf4","6580190f646de80c5e06d84c","2778","./stimuli//pack_noise_shapes_3/cat_1/diff_3/ex_1_3_8.mp4","arrowleft","response","ArrowLeft","8","1","3","test","true","",""
"","","","","","html-keyboard-response","137","333295","0.0-7.33-2.33","61322447efdb668e0b2e4f21","65801700b94e79b0c0532bf4","6580190f646de80c5e06d84c","null","<p> <font color=""green"" size=""5vw""> Correct match! </font> <br> <br> <font color=""green"" size=""8vw""> + $0.11 </font> </p>","null","feedback","","","","","","","2.07","0.11"
"","","","","","html-keyboard-response","138","333889","0.0-7.34-0.34","61322447efdb668e0b2e4f21","65801700b94e79b0c0532bf4","6580190f646de80c5e06d84c","592","
            
        <div style=""text-align: center; position: fixed; top: 5vh; left: 40vw;"">
            <div style=""margin:0 auto; width: 20vw; top: 8vh; font-size: 2vw""> 
            <font color=""green""> Bonus : $2.07 </font>
            </div>
        </div>
    
            <p> Please press any key to continue to the next movie.</p>
            <p> Remember your choices : <p>
            <div class=""container"">
                <div class=""photos"">
                    <img class=""image"" src=./stimuli//pack_noise_shapes_3/cat_1/prototype_1.png>
                    <span class=""word""><b>Press left arrow key if the shape looks like this one.</b></span>
                </div>
                <div class=""photos"">
                    <img class=""image"" src=./stimuli//pack_noise_shapes_3/cat_2/prototype_2.png>
                    <div class=""word""><b>Press right arrow key if the shape looks like this one.</b></div>
                </div>
            </div>
        ","arrowleft","ITI","","","","","","","",""
"","","","","","html-keyboard-response","139","337454","0.0-7.34-1.34","61322447efdb668e0b2e4f21","65801700b94e79b0c0532bf4","6580190f646de80c5e06d84c","3563","./stimuli//pack_noise_shapes_3/cat_2/diff_3/ex_2_3_3.mp4","arrowright","response","ArrowRight","3","2","3","test","true","",""
"","","","","","html-keyboard-response","140","338956","0.0-7.34-2.34","61322447efdb668e0b2e4f21","65801700b94e79b0c0532bf4","6580190f646de80c5e06d84c","null","<p> <font color=""green"" size=""5vw""> Correct match! </font> <br> <br> <font color=""green"" size=""8vw""> + $0.1 </font> </p>","null","feedback","","","","","","","2.17","0.1"
"","","","","","html-keyboard-response","141","339358","0.0-7.35-0.35","61322447efdb668e0b2e4f21","65801700b94e79b0c0532bf4","6580190f646de80c5e06d84c","399","
            
        <div style=""text-align: center; position: fixed; top: 5vh; left: 40vw;"">
            <div style=""margin:0 auto; width: 20vw; top: 8vh; font-size: 2vw""> 
            <font color=""green""> Bonus : $2.17 </font>
            </div>
        </div>
    
            <p> Please press any key to continue to the next movie.</p>
            <p> Remember your choices : <p>
            <div class=""container"">
                <div class=""photos"">
                    <img class=""image"" src=./stimuli//pack_noise_shapes_3/cat_1/prototype_1.png>
                    <span class=""word""><b>Press left arrow key if the shape looks like this one.</b></span>
                </div>
                <div class=""photos"">
                    <img class=""image"" src=./stimuli//pack_noise_shapes_3/cat_2/prototype_2.png>
                    <div class=""word""><b>Press right arrow key if the shape looks like this one.</b></div>
                </div>
            </div>
        ","arrowleft","ITI","","","","","","","",""
"","","","","","html-keyboard-response","142","342790","0.0-7.35-1.35","61322447efdb668e0b2e4f21","65801700b94e79b0c0532bf4","6580190f646de80c5e06d84c","3430","./stimuli//pack_noise_shapes_3/cat_2/diff_4/ex_2_4_4.mp4","arrowright","response","ArrowRight","4","2","4","test","true","",""
"","","","","","html-keyboard-response","143","344298","0.0-7.35-2.35","61322447efdb668e0b2e4f21","65801700b94e79b0c0532bf4","6580190f646de80c5e06d84c","null","<p> <font color=""green"" size=""5vw""> Correct match! </font> <br> <br> <font color=""green"" size=""8vw""> + $0.1 </font> </p>","null","feedback","","","","","","","2.27","0.1"
"","","","","","html-keyboard-response","144","345072","0.0-7.36-0.36","61322447efdb668e0b2e4f21","65801700b94e79b0c0532bf4","6580190f646de80c5e06d84c","772","
            
        <div style=""text-align: center; position: fixed; top: 5vh; left: 40vw;"">
            <div style=""margin:0 auto; width: 20vw; top: 8vh; font-size: 2vw""> 
            <font color=""green""> Bonus : $2.27 </font>
            </div>
        </div>
    
            <p> Please press any key to continue to the next movie.</p>
            <p> Remember your choices : <p>
            <div class=""container"">
                <div class=""photos"">
                    <img class=""image"" src=./stimuli//pack_noise_shapes_3/cat_1/prototype_1.png>
                    <span class=""word""><b>Press left arrow key if the shape looks like this one.</b></span>
                </div>
                <div class=""photos"">
                    <img class=""image"" src=./stimuli//pack_noise_shapes_3/cat_2/prototype_2.png>
                    <div class=""word""><b>Press right arrow key if the shape looks like this one.</b></div>
                </div>
            </div>
        ","arrowleft","ITI","","","","","","","",""
"","","","","","html-keyboard-response","145","348218","0.0-7.36-1.36","61322447efdb668e0b2e4f21","65801700b94e79b0c0532bf4","6580190f646de80c5e06d84c","3144","./stimuli//pack_noise_shapes_3/cat_1/diff_4/ex_1_4_3.mp4","arrowleft","response","ArrowLeft","3","1","4","test","true","",""
"","","","","","html-keyboard-response","146","349722","0.0-7.36-2.36","61322447efdb668e0b2e4f21","65801700b94e79b0c0532bf4","6580190f646de80c5e06d84c","null","<p> <font color=""green"" size=""5vw""> Correct match! </font> <br> <br> <font color=""green"" size=""8vw""> + $0.1 </font> </p>","null","feedback","","","","","","","2.37","0.1"
"","","","","","html-keyboard-response","147","352564","0.0-7.37-0.37","61322447efdb668e0b2e4f21","65801700b94e79b0c0532bf4","6580190f646de80c5e06d84c","2839","
            
        <div style=""text-align: center; position: fixed; top: 5vh; left: 40vw;"">
            <div style=""margin:0 auto; width: 20vw; top: 8vh; font-size: 2vw""> 
            <font color=""green""> Bonus : $2.37 </font>
            </div>
        </div>
    
            <p> Please press any key to continue to the next movie.</p>
            <p> Remember your choices : <p>
            <div class=""container"">
                <div class=""photos"">
                    <img class=""image"" src=./stimuli//pack_noise_shapes_3/cat_1/prototype_1.png>
                    <span class=""word""><b>Press left arrow key if the shape looks like this one.</b></span>
                </div>
                <div class=""photos"">
                    <img class=""image"" src=./stimuli//pack_noise_shapes_3/cat_2/prototype_2.png>
                    <div class=""word""><b>Press right arrow key if the shape looks like this one.</b></div>
                </div>
            </div>
        ","arrowright","ITI","","","","","","","",""
"","","","","","html-keyboard-response","148","355031","0.0-7.37-1.37","61322447efdb668e0b2e4f21","65801700b94e79b0c0532bf4","6580190f646de80c5e06d84c","2464","./stimuli//pack_noise_shapes_3/cat_1/diff_4/ex_1_4_15.mp4","arrowleft","response","ArrowLeft","15","1","4","test","true","",""
"","","","","","html-keyboard-response","149","356548","0.0-7.37-2.37","61322447efdb668e0b2e4f21","65801700b94e79b0c0532bf4","6580190f646de80c5e06d84c","null","<p> <font color=""green"" size=""5vw""> Correct match! </font> <br> <br> <font color=""green"" size=""8vw""> + $0.11 </font> </p>","null","feedback","","","","","","","2.48","0.11"
"","","","","","html-keyboard-response","150","357365","0.0-7.38-0.38","61322447efdb668e0b2e4f21","65801700b94e79b0c0532bf4","6580190f646de80c5e06d84c","816","
            
        <div style=""text-align: center; position: fixed; top: 5vh; left: 40vw;"">
            <div style=""margin:0 auto; width: 20vw; top: 8vh; font-size: 2vw""> 
            <font color=""green""> Bonus : $2.48 </font>
            </div>
        </div>
    
            <p> Please press any key to continue to the next movie.</p>
            <p> Remember your choices : <p>
            <div class=""container"">
                <div class=""photos"">
                    <img class=""image"" src=./stimuli//pack_noise_shapes_3/cat_1/prototype_1.png>
                    <span class=""word""><b>Press left arrow key if the shape looks like this one.</b></span>
                </div>
                <div class=""photos"">
                    <img class=""image"" src=./stimuli//pack_noise_shapes_3/cat_2/prototype_2.png>
                    <div class=""word""><b>Press right arrow key if the shape looks like this one.</b></div>
                </div>
            </div>
        ","arrowright","ITI","","","","","","","",""
"","","","","","html-keyboard-response","151","361673","0.0-7.38-1.38","61322447efdb668e0b2e4f21","65801700b94e79b0c0532bf4","6580190f646de80c5e06d84c","4304","./stimuli//pack_noise_shapes_3/cat_1/diff_4/ex_1_4_2.mp4","arrowright","response","ArrowLeft","2","1","4","test","false","",""
"","","","","","html-keyboard-response","152","366679","0.0-7.38-2.38","61322447efdb668e0b2e4f21","65801700b94e79b0c0532bf4","6580190f646de80c5e06d84c","null","<p> <font color=""red"" size=""5vw""> Wrong match! </font> <br> <br> <font color=""red"" size=""8vw""> - $0.1 </font> </p>","null","feedback","","","","","","","2.38","-0.1"
"","","","","","html-keyboard-response","153","367198","0.0-7.39-0.39","61322447efdb668e0b2e4f21","65801700b94e79b0c0532bf4","6580190f646de80c5e06d84c","518","
            
        <div style=""text-align: center; position: fixed; top: 5vh; left: 40vw;"">
            <div style=""margin:0 auto; width: 20vw; top: 8vh; font-size: 2vw""> 
            <font color=""green""> Bonus : $2.38 </font>
            </div>
        </div>
    
            <p> Please press any key to continue to the next movie.</p>
            <p> Remember your choices : <p>
            <div class=""container"">
                <div class=""photos"">
                    <img class=""image"" src=./stimuli//pack_noise_shapes_3/cat_1/prototype_1.png>
                    <span class=""word""><b>Press left arrow key if the shape looks like this one.</b></span>
                </div>
                <div class=""photos"">
                    <img class=""image"" src=./stimuli//pack_noise_shapes_3/cat_2/prototype_2.png>
                    <div class=""word""><b>Press right arrow key if the shape looks like this one.</b></div>
                </div>
            </div>
        ","arrowleft","ITI","","","","","","","",""
"","","","","","html-keyboard-response","154","371321","0.0-7.39-1.39","61322447efdb668e0b2e4f21","65801700b94e79b0c0532bf4","6580190f646de80c5e06d84c","4121","./stimuli//pack_noise_shapes_3/cat_2/diff_4/ex_2_4_5.mp4","arrowleft","response","ArrowRight","5","2","4","test","false","",""
"","","","","","html-keyboard-response","155","376336","0.0-7.39-2.39","61322447efdb668e0b2e4f21","65801700b94e79b0c0532bf4","6580190f646de80c5e06d84c","null","<p> <font color=""red"" size=""5vw""> Wrong match! </font> <br> <br> <font color=""red"" size=""8vw""> - $0.1 </font> </p>","null","feedback","","","","","","","2.28","-0.1"
"","","","","","html-keyboard-response","156","377222","0.0-7.40-0.40","61322447efdb668e0b2e4f21","65801700b94e79b0c0532bf4","6580190f646de80c5e06d84c","885","
            
        <div style=""text-align: center; position: fixed; top: 5vh; left: 40vw;"">
            <div style=""margin:0 auto; width: 20vw; top: 8vh; font-size: 2vw""> 
            <font color=""green""> Bonus : $2.28 </font>
            </div>
        </div>
    
            <p> Please press any key to continue to the next movie.</p>
            <p> Remember your choices : <p>
            <div class=""container"">
                <div class=""photos"">
                    <img class=""image"" src=./stimuli//pack_noise_shapes_3/cat_1/prototype_1.png>
                    <span class=""word""><b>Press left arrow key if the shape looks like this one.</b></span>
                </div>
                <div class=""photos"">
                    <img class=""image"" src=./stimuli//pack_noise_shapes_3/cat_2/prototype_2.png>
                    <div class=""word""><b>Press right arrow key if the shape looks like this one.</b></div>
                </div>
            </div>
        ","arrowleft","ITI","","","","","","","",""
"","","","","","html-keyboard-response","157","380201","0.0-7.40-1.40","61322447efdb668e0b2e4f21","65801700b94e79b0c0532bf4","6580190f646de80c5e06d84c","2977","./stimuli//pack_noise_shapes_3/cat_1/diff_3/ex_1_3_13.mp4","arrowleft","response","ArrowLeft","13","1","3","test","true","",""
"","","","","","html-keyboard-response","158","381707","0.0-7.40-2.40","61322447efdb668e0b2e4f21","65801700b94e79b0c0532bf4","6580190f646de80c5e06d84c","null","<p> <font color=""green"" size=""5vw""> Correct match! </font> <br> <br> <font color=""green"" size=""8vw""> + $0.16 </font> </p>","null","feedback","","","","","","","2.44","0.16"
"","","","","","html-keyboard-response","159","382246","0.0-7.41-0.41","61322447efdb668e0b2e4f21","65801700b94e79b0c0532bf4","6580190f646de80c5e06d84c","537","
            
        <div style=""text-align: center; position: fixed; top: 5vh; left: 40vw;"">
            <div style=""margin:0 auto; width: 20vw; top: 8vh; font-size: 2vw""> 
            <font color=""green""> Bonus : $2.44 </font>
            </div>
        </div>
    
            <p> Please press any key to continue to the next movie.</p>
            <p> Remember your choices : <p>
            <div class=""container"">
                <div class=""photos"">
                    <img class=""image"" src=./stimuli//pack_noise_shapes_3/cat_1/prototype_1.png>
                    <span class=""word""><b>Press left arrow key if the shape looks like this one.</b></span>
                </div>
                <div class=""photos"">
                    <img class=""image"" src=./stimuli//pack_noise_shapes_3/cat_2/prototype_2.png>
                    <div class=""word""><b>Press right arrow key if the shape looks like this one.</b></div>
                </div>
            </div>
        ","arrowleft","ITI","","","","","","","",""
"","","","","","html-keyboard-response","160","384742","0.0-7.41-1.41","61322447efdb668e0b2e4f21","65801700b94e79b0c0532bf4","6580190f646de80c5e06d84c","2495","./stimuli//pack_noise_shapes_3/cat_1/diff_3/ex_1_3_15.mp4","arrowleft","response","ArrowLeft","15","1","3","test","true","",""
"","","","","","html-keyboard-response","161","386257","0.0-7.41-2.41","61322447efdb668e0b2e4f21","65801700b94e79b0c0532bf4","6580190f646de80c5e06d84c","null","<p> <font color=""green"" size=""5vw""> Correct match! </font> <br> <br> <font color=""green"" size=""8vw""> + $0.16 </font> </p>","null","feedback","","","","","","","2.6","0.16"
"","","","","","html-keyboard-response","162","387142","0.0-7.42-0.42","61322447efdb668e0b2e4f21","65801700b94e79b0c0532bf4","6580190f646de80c5e06d84c","884","
            
        <div style=""text-align: center; position: fixed; top: 5vh; left: 40vw;"">
            <div style=""margin:0 auto; width: 20vw; top: 8vh; font-size: 2vw""> 
            <font color=""green""> Bonus : $2.6 </font>
            </div>
        </div>
    
            <p> Please press any key to continue to the next movie.</p>
            <p> Remember your choices : <p>
            <div class=""container"">
                <div class=""photos"">
                    <img class=""image"" src=./stimuli//pack_noise_shapes_3/cat_1/prototype_1.png>
                    <span class=""word""><b>Press left arrow key if the shape looks like this one.</b></span>
                </div>
                <div class=""photos"">
                    <img class=""image"" src=./stimuli//pack_noise_shapes_3/cat_2/prototype_2.png>
                    <div class=""word""><b>Press right arrow key if the shape looks like this one.</b></div>
                </div>
            </div>
        ","arrowleft","ITI","","","","","","","",""
"","","","","","html-keyboard-response","163","390846","0.0-7.42-1.42","61322447efdb668e0b2e4f21","65801700b94e79b0c0532bf4","6580190f646de80c5e06d84c","3702","./stimuli//pack_noise_shapes_3/cat_2/diff_3/ex_2_3_5.mp4","arrowright","response","ArrowRight","5","2","3","test","true","",""
"","","","","","html-keyboard-response","164","392353","0.0-7.42-2.42","61322447efdb668e0b2e4f21","65801700b94e79b0c0532bf4","6580190f646de80c5e06d84c","null","<p> <font color=""green"" size=""5vw""> Correct match! </font> <br> <br> <font color=""green"" size=""8vw""> + $0.15 </font> </p>","null","feedback","","","","","","","2.75","0.15"
"","","","","","html-keyboard-response","165","393303","0.0-7.43-0.43","61322447efdb668e0b2e4f21","65801700b94e79b0c0532bf4","6580190f646de80c5e06d84c","937","
            
        <div style=""text-align: center; position: fixed; top: 5vh; left: 40vw;"">
            <div style=""margin:0 auto; width: 20vw; top: 8vh; font-size: 2vw""> 
            <font color=""green""> Bonus : $2.75 </font>
            </div>
        </div>
