"success","timeout","failed_images","failed_audio","failed_video","trial_type","trial_index","time_elapsed","internal_node_id","subject_id","study_id","session_id","rt","stimulus","response","task","correct_response","exemplar_ID","category","difficulty","phase","correct","bonus","trial_bonus"
"true","false","[]","[]","[]","preload","0","2","0.0-0.0","607417a6a2b03d66922db6c1","65801700b94e79b0c0532bf4","658018eac7afa8708864d65f","","","","","","","","","","","",""
"","","","","","html-keyboard-response","1","2376","0.0-1.0","607417a6a2b03d66922db6c1","65801700b94e79b0c0532bf4","658018eac7afa8708864d65f","2373","Welcome to the Category Matching experiment! Press any key to continue."," ","welcome","","","","","","","",""
"","","","","","html-keyboard-response","2","13192","0.0-2.0","607417a6a2b03d66922db6c1","65801700b94e79b0c0532bf4","658018eac7afa8708864d65f","10815","
            <p>You will be shown movies. Each movie contains a shape that initially is hidden and is gradually revealed. 
            <p> While you watch a shape being revealed, you have to choose which shape from the two below it is most similar to : </p>
            <div class=""container"">
                <div class=""photos"">
                    <img class=""image"" src=./stimuli//pack_noise_shapes_3/cat_1/prototype_1.png>
                    <span class=""word""><b>Press left arrow key to choose this shape.</b></span>
                </div>
                <div class=""photos"">
                    <img class=""image"" src=./stimuli//pack_noise_shapes_3/cat_2/prototype_2.png >
                    <div class=""word""><b>Press right arrow key to choose this shape.</b></div>
                </div>
            </div>
            <br>
            <p>Press any key to continue.</p>
            "," ","introduction_1","","","","","","","",""
"","","","","","html-keyboard-response","3","29916","0.0-3.0","607417a6a2b03d66922db6c1","65801700b94e79b0c0532bf4","658018eac7afa8708864d65f","16723","
            <p> After you choose, the screen will show you whether you were correct or not.</p>
            <p><b>You will receive a bonus payment for each correct answer! The faster you answer the higher the bonus will be!</b></p>
            <p> So you can increase your bonus by guessing as quickly and accurately as possible.</p>
            <p><b>You will lose $0.1 from your bonus payment for each incorrect answer! The bonus can not become less than $0.</b> </p>
            <p>Press any key to continue.</p>
    "," ","introduction_2","","","","","","","",""
"","","","","","html-keyboard-response","4","34897","0.0-4.0","607417a6a2b03d66922db6c1","65801700b94e79b0c0532bf4","658018eac7afa8708864d65f","4979","
            <p> <b>The first 10 shapes are a practice round that will not count towards your bonus payment.</b></p>
            <p> You will be notified when practice finishes and the test begins. </p>
            <p> Press any key to begin the practice round.</p>
            "," ","introduction_3","","","","","","","",""
"","","","","","html-keyboard-response","5","41113","0.0-5.0-0.0","607417a6a2b03d66922db6c1","65801700b94e79b0c0532bf4","658018eac7afa8708864d65f","6214","
            
        <div style=""text-align: center; position: fixed; top: 5vh; left: 40vw;"">
            <div style=""margin:0 auto; width: 20vw; top: 8vh; font-size: 2vw""> 
            <font color=""green""> Bonus : $0 </font>
            </div>
        </div>
    
            <p> Please press any key to continue to the next movie.</p>
            <p> Remember your choices : <p>
            <div class=""container"">
                <div class=""photos"">
                    <img class=""image"" src=./stimuli//pack_noise_shapes_3/cat_1/prototype_1.png>
                    <span class=""word""><b>Press left arrow key if the shape looks like this one.</b></span>
                </div>
                <div class=""photos"">
                    <img class=""image"" src=./stimuli//pack_noise_shapes_3/cat_2/prototype_2.png>
                    <div class=""word""><b>Press right arrow key if the shape looks like this one.</b></div>
                </div>
            </div>
        "," ","ITI","","","","","","","",""
"","","","","","html-keyboard-response","6","46626","0.0-5.0-1.0","607417a6a2b03d66922db6c1","65801700b94e79b0c0532bf4","658018eac7afa8708864d65f","null","./stimuli//pack_noise_shapes_3/cat_2/diff_2/ex_2_2_17.mp4","null","response","ArrowRight","17","2","2","train","false","",""
"","","","","","html-keyboard-response","7","51630","0.0-5.0-2.0","607417a6a2b03d66922db6c1","65801700b94e79b0c0532bf4","658018eac7afa8708864d65f","null","<p> <font color=""red"" size=""5vw""> Time out! </font> <br> Please try to respond as quickly as possible. </p>","null","feedback","","","","","","","0","0"
"","","","","","html-keyboard-response","8","53809","0.0-5.0-0.1","607417a6a2b03d66922db6c1","65801700b94e79b0c0532bf4","658018eac7afa8708864d65f","2178","
            
        <div style=""text-align: center; position: fixed; top: 5vh; left: 40vw;"">
            <div style=""margin:0 auto; width: 20vw; top: 8vh; font-size: 2vw""> 
            <font color=""green""> Bonus : $0 </font>
            </div>
        </div>
    
            <p> Please press any key to continue to the next movie.</p>
            <p> Remember your choices : <p>
            <div class=""container"">
                <div class=""photos"">
                    <img class=""image"" src=./stimuli//pack_noise_shapes_3/cat_1/prototype_1.png>
                    <span class=""word""><b>Press left arrow key if the shape looks like this one.</b></span>
                </div>
                <div class=""photos"">
                    <img class=""image"" src=./stimuli//pack_noise_shapes_3/cat_2/prototype_2.png>
                    <div class=""word""><b>Press right arrow key if the shape looks like this one.</b></div>
                </div>
            </div>
        ","arrowright","ITI","","","","","","","",""
"","","","","","html-keyboard-response","9","56681","0.0-5.0-1.1","607417a6a2b03d66922db6c1","65801700b94e79b0c0532bf4","658018eac7afa8708864d65f","2869","./stimuli//pack_noise_shapes_3/cat_2/diff_1/ex_2_1_8.mp4","arrowright","response","ArrowRight","8","2","1","train","true","",""
"","","","","","html-keyboard-response","10","58185","0.0-5.0-2.1","607417a6a2b03d66922db6c1","65801700b94e79b0c0532bf4","658018eac7afa8708864d65f","null","<p> <font color=""green"" size=""5vw""> Correct category! </font> </p>","null","feedback","","","","","","","0","0"
"","","","","","html-keyboard-response","11","61146","0.0-5.0-0.2","607417a6a2b03d66922db6c1","65801700b94e79b0c0532bf4","658018eac7afa8708864d65f","2959","
            
        <div style=""text-align: center; position: fixed; top: 5vh; left: 40vw;"">
            <div style=""margin:0 auto; width: 20vw; top: 8vh; font-size: 2vw""> 
            <font color=""green""> Bonus : $0 </font>
            </div>
        </div>
    
            <p> Please press any key to continue to the next movie.</p>
            <p> Remember your choices : <p>
            <div class=""container"">
                <div class=""photos"">
                    <img class=""image"" src=./stimuli//pack_noise_shapes_3/cat_1/prototype_1.png>
                    <span class=""word""><b>Press left arrow key if the shape looks like this one.</b></span>
                </div>
                <div class=""photos"">
                    <img class=""image"" src=./stimuli//pack_noise_shapes_3/cat_2/prototype_2.png>
                    <div class=""word""><b>Press right arrow key if the shape looks like this one.</b></div>
                </div>
            </div>
        "," ","ITI","","","","","","","",""
"","","","","","html-keyboard-response","12","63669","0.0-5.0-1.2","607417a6a2b03d66922db6c1","65801700b94e79b0c0532bf4","658018eac7afa8708864d65f","2518","./stimuli//pack_noise_shapes_3/cat_1/diff_1/ex_1_1_1.mp4","arrowleft","response","ArrowLeft","1","1","1","train","true","",""
"","","","","","html-keyboard-response","13","65184","0.0-5.0-2.2","607417a6a2b03d66922db6c1","65801700b94e79b0c0532bf4","658018eac7afa8708864d65f","null","<p> <font color=""green"" size=""5vw""> Correct category! </font> </p>","null","feedback","","","","","","","0","0"
"","","","","","html-keyboard-response","14","66478","0.0-5.0-0.3","607417a6a2b03d66922db6c1","65801700b94e79b0c0532bf4","658018eac7afa8708864d65f","1293","
            
        <div style=""text-align: center; position: fixed; top: 5vh; left: 40vw;"">
            <div style=""margin:0 auto; width: 20vw; top: 8vh; font-size: 2vw""> 
            <font color=""green""> Bonus : $0 </font>
            </div>
        </div>
    
            <p> Please press any key to continue to the next movie.</p>
            <p> Remember your choices : <p>
            <div class=""container"">
                <div class=""photos"">
                    <img class=""image"" src=./stimuli//pack_noise_shapes_3/cat_1/prototype_1.png>
                    <span class=""word""><b>Press left arrow key if the shape looks like this one.</b></span>
                </div>
                <div class=""photos"">
                    <img class=""image"" src=./stimuli//pack_noise_shapes_3/cat_2/prototype_2.png>
                    <div class=""word""><b>Press right arrow key if the shape looks like this one.</b></div>
                </div>
            </div>
        "," ","ITI","","","","","","","",""
"","","","","","html-keyboard-response","15","68877","0.0-5.0-1.3","607417a6a2b03d66922db6c1","65801700b94e79b0c0532bf4","658018eac7afa8708864d65f","2396","./stimuli//pack_noise_shapes_3/cat_1/diff_2/ex_1_2_12.mp4","arrowleft","response","ArrowLeft","12","1","2","train","true","",""
"","","","","","html-keyboard-response","16","70392","0.0-5.0-2.3","607417a6a2b03d66922db6c1","65801700b94e79b0c0532bf4","658018eac7afa8708864d65f","null","<p> <font color=""green"" size=""5vw""> Correct category! </font> </p>","null","feedback","","","","","","","0","0"
"","","","","","html-keyboard-response","17","71139","0.0-5.0-0.4","607417a6a2b03d66922db6c1","65801700b94e79b0c0532bf4","658018eac7afa8708864d65f","737","
            
        <div style=""text-align: center; position: fixed; top: 5vh; left: 40vw;"">
            <div style=""margin:0 auto; width: 20vw; top: 8vh; font-size: 2vw""> 
            <font color=""green""> Bonus : $0 </font>
            </div>
        </div>
    
            <p> Please press any key to continue to the next movie.</p>
            <p> Remember your choices : <p>
            <div class=""container"">
                <div class=""photos"">
                    <img class=""image"" src=./stimuli//pack_noise_shapes_3/cat_1/prototype_1.png>
                    <span class=""word""><b>Press left arrow key if the shape looks like this one.</b></span>
                </div>
                <div class=""photos"">
                    <img class=""image"" src=./stimuli//pack_noise_shapes_3/cat_2/prototype_2.png>
                    <div class=""word""><b>Press right arrow key if the shape looks like this one.</b></div>
                </div>
            </div>
        "," ","ITI","","","","","","","",""
"","","","","","html-keyboard-response","18","73458","0.0-5.0-1.4","607417a6a2b03d66922db6c1","65801700b94e79b0c0532bf4","658018eac7afa8708864d65f","2316","./stimuli//pack_noise_shapes_3/cat_1/diff_1/ex_1_1_12.mp4","arrowleft","response","ArrowLeft","12","1","1","train","true","",""
"","","","","","html-keyboard-response","19","74964","0.0-5.0-2.4","607417a6a2b03d66922db6c1","65801700b94e79b0c0532bf4","658018eac7afa8708864d65f","null","<p> <font color=""green"" size=""5vw""> Correct category! </font> </p>","null","feedback","","","","","","","0","0"
"","","","","","html-keyboard-response","20","75852","0.0-5.0-0.5","607417a6a2b03d66922db6c1","65801700b94e79b0c0532bf4","658018eac7afa8708864d65f","886","
            
        <div style=""text-align: center; position: fixed; top: 5vh; left: 40vw;"">
            <div style=""margin:0 auto; width: 20vw; top: 8vh; font-size: 2vw""> 
            <font color=""green""> Bonus : $0 </font>
            </div>
        </div>
    
            <p> Please press any key to continue to the next movie.</p>
            <p> Remember your choices : <p>
            <div class=""container"">
                <div class=""photos"">
                    <img class=""image"" src=./stimuli//pack_noise_shapes_3/cat_1/prototype_1.png>
                    <span class=""word""><b>Press left arrow key if the shape looks like this one.</b></span>
                </div>
                <div class=""photos"">
                    <img class=""image"" src=./stimuli//pack_noise_shapes_3/cat_2/prototype_2.png>
                    <div class=""word""><b>Press right arrow key if the shape looks like this one.</b></div>
                </div>
            </div>
        "," ","ITI","","","","","","","",""
"","","","","","html-keyboard-response","21","78087","0.0-5.0-1.5","607417a6a2b03d66922db6c1","65801700b94e79b0c0532bf4","658018eac7afa8708864d65f","2231","./stimuli//pack_noise_shapes_3/cat_1/diff_1/ex_1_1_5.mp4","arrowleft","response","ArrowLeft","5","1","1","train","true","",""
"","","","","","html-keyboard-response","22","79596","0.0-5.0-2.5","607417a6a2b03d66922db6c1","65801700b94e79b0c0532bf4","658018eac7afa8708864d65f","null","<p> <font color=""green"" size=""5vw""> Correct category! </font> </p>","null","feedback","","","","","","","0","0"
"","","","","","html-keyboard-response","23","80510","0.0-5.0-0.6","607417a6a2b03d66922db6c1","65801700b94e79b0c0532bf4","658018eac7afa8708864d65f","911","
            
        <div style=""text-align: center; position: fixed; top: 5vh; left: 40vw;"">
            <div style=""margin:0 auto; width: 20vw; top: 8vh; font-size: 2vw""> 
            <font color=""green""> Bonus : $0 </font>
            </div>
        </div>
    
            <p> Please press any key to continue to the next movie.</p>
            <p> Remember your choices : <p>
            <div class=""container"">
                <div class=""photos"">
                    <img class=""image"" src=./stimuli//pack_noise_shapes_3/cat_1/prototype_1.png>
                    <span class=""word""><b>Press left arrow key if the shape looks like this one.</b></span>
                </div>
                <div class=""photos"">
                    <img class=""image"" src=./stimuli//pack_noise_shapes_3/cat_2/prototype_2.png>
                    <div class=""word""><b>Press right arrow key if the shape looks like this one.</b></div>
                </div>
            </div>
        "," ","ITI","","","","","","","",""
"","","","","","html-keyboard-response","24","83705","0.0-5.0-1.6","607417a6a2b03d66922db6c1","65801700b94e79b0c0532bf4","658018eac7afa8708864d65f","3189","./stimuli//pack_noise_shapes_3/cat_2/diff_1/ex_2_1_1.mp4","arrowright","response","ArrowRight","1","2","1","train","true","",""
"","","","","","html-keyboard-response","25","85213","0.0-5.0-2.6","607417a6a2b03d66922db6c1","65801700b94e79b0c0532bf4","658018eac7afa8708864d65f","null","<p> <font color=""green"" size=""5vw""> Correct category! </font> </p>","null","feedback","","","","","","","0","0"
"","","","","","html-keyboard-response","26","86146","0.0-5.0-0.7","607417a6a2b03d66922db6c1","65801700b94e79b0c0532bf4","658018eac7afa8708864d65f","931","
            
        <div style=""text-align: center; position: fixed; top: 5vh; left: 40vw;"">
            <div style=""margin:0 auto; width: 20vw; top: 8vh; font-size: 2vw""> 
            <font color=""green""> Bonus : $0 </font>
            </div>
        </div>
    
            <p> Please press any key to continue to the next movie.</p>
            <p> Remember your choices : <p>
            <div class=""container"">
                <div class=""photos"">
                    <img class=""image"" src=./stimuli//pack_noise_shapes_3/cat_1/prototype_1.png>
                    <span class=""word""><b>Press left arrow key if the shape looks like this one.</b></span>
                </div>
                <div class=""photos"">
                    <img class=""image"" src=./stimuli//pack_noise_shapes_3/cat_2/prototype_2.png>
                    <div class=""word""><b>Press right arrow key if the shape looks like this one.</b></div>
                </div>
            </div>
        "," ","ITI","","","","","","","",""
"","","","","","html-keyboard-response","27","88645","0.0-5.0-1.7","607417a6a2b03d66922db6c1","65801700b94e79b0c0532bf4","658018eac7afa8708864d65f","2496","./stimuli//pack_noise_shapes_3/cat_2/diff_1/ex_2_1_11.mp4","arrowright","response","ArrowRight","11","2","1","train","true","",""
"","","","","","html-keyboard-response","28","90156","0.0-5.0-2.7","607417a6a2b03d66922db6c1","65801700b94e79b0c0532bf4","658018eac7afa8708864d65f","null","<p> <font color=""green"" size=""5vw""> Correct category! </font> </p>","null","feedback","","","","","","","0","0"
"","","","","","html-keyboard-response","29","90548","0.0-5.0-0.8","607417a6a2b03d66922db6c1","65801700b94e79b0c0532bf4","658018eac7afa8708864d65f","389","
            
        <div style=""text-align: center; position: fixed; top: 5vh; left: 40vw;"">
            <div style=""margin:0 auto; width: 20vw; top: 8vh; font-size: 2vw""> 
            <font color=""green""> Bonus : $0 </font>
            </div>
        </div>
    
            <p> Please press any key to continue to the next movie.</p>
            <p> Remember your choices : <p>
            <div class=""container"">
                <div class=""photos"">
                    <img class=""image"" src=./stimuli//pack_noise_shapes_3/cat_1/prototype_1.png>
                    <span class=""word""><b>Press left arrow key if the shape looks like this one.</b></span>
                </div>
                <div class=""photos"">
                    <img class=""image"" src=./stimuli//pack_noise_shapes_3/cat_2/prototype_2.png>
                    <div class=""word""><b>Press right arrow key if the shape looks like this one.</b></div>
                </div>
            </div>
        ","arrowright","ITI","","","","","","","",""
"","","","","","html-keyboard-response","30","93029","0.0-5.0-1.8","607417a6a2b03d66922db6c1","65801700b94e79b0c0532bf4","658018eac7afa8708864d65f","2477","./stimuli//pack_noise_shapes_3/cat_1/diff_2/ex_1_2_4.mp4","arrowleft","response","ArrowLeft","4","1","2","train","true","",""
"","","","","","html-keyboard-response","31","94541","0.0-5.0-2.8","607417a6a2b03d66922db6c1","65801700b94e79b0c0532bf4","658018eac7afa8708864d65f","null","<p> <font color=""green"" size=""5vw""> Correct category! </font> </p>","null","feedback","","","","","","","0","0"
"","","","","","html-keyboard-response","32","95331","0.0-5.0-0.9","607417a6a2b03d66922db6c1","65801700b94e79b0c0532bf4","658018eac7afa8708864d65f","789","
            
        <div style=""text-align: center; position: fixed; top: 5vh; left: 40vw;"">
            <div style=""margin:0 auto; width: 20vw; top: 8vh; font-size: 2vw""> 
            <font color=""green""> Bonus : $0 </font>
            </div>
        </div>
    
            <p> Please press any key to continue to the next movie.</p>
            <p> Remember your choices : <p>
            <div class=""container"">
                <div class=""photos"">
                    <img class=""image"" src=./stimuli//pack_noise_shapes_3/cat_1/prototype_1.png>
                    <span class=""word""><b>Press left arrow key if the shape looks like this one.</b></span>
                </div>
                <div class=""photos"">
                    <img class=""image"" src=./stimuli//pack_noise_shapes_3/cat_2/prototype_2.png>
                    <div class=""word""><b>Press right arrow key if the shape looks like this one.</b></div>
                </div>
            </div>
        ","arrowleft","ITI","","","","","","","",""
"","","","","","html-keyboard-response","33","97560","0.0-5.0-1.9","607417a6a2b03d66922db6c1","65801700b94e79b0c0532bf4","658018eac7afa8708864d65f","2225","./stimuli//pack_noise_shapes_3/cat_2/diff_2/ex_2_2_15.mp4","arrowright","response","ArrowRight","15","2","2","train","true","",""
"","","","","","html-keyboard-response","34","99074","0.0-5.0-2.9","607417a6a2b03d66922db6c1","65801700b94e79b0c0532bf4","658018eac7afa8708864d65f","null","<p> <font color=""green"" size=""5vw""> Correct category! </font> </p>","null","feedback","","","","","","","0","0"
"","","","","","html-keyboard-response","35","111558","0.0-6.0","607417a6a2b03d66922db6c1","65801700b94e79b0c0532bf4","658018eac7afa8708864d65f","12482","
            <b> <p> The practice round has finished.</p>
            <b> <p> For the rest of the experiment you will receive a bonus payment for each correct answer, which will be higher the faster you answer!</b></p>
            <b> <p> Also you will lose $0.1 from your bonus payment for each incorrect answer!</p>
            <p> Press any key to begin the test. </p>
            "," ","intermission","","","","","","","",""
"","","","","","html-keyboard-response","36","112792","0.0-7.0-0.0","607417a6a2b03d66922db6c1","65801700b94e79b0c0532bf4","658018eac7afa8708864d65f","1233","
            
        <div style=""text-align: center; position: fixed; top: 5vh; left: 40vw;"">
            <div style=""margin:0 auto; width: 20vw; top: 8vh; font-size: 2vw""> 
            <font color=""green""> Bonus : $0 </font>
            </div>
        </div>
    
            <p> Please press any key to continue to the next movie.</p>
            <p> Remember your choices : <p>
            <div class=""container"">
                <div class=""photos"">
                    <img class=""image"" src=./stimuli//pack_noise_shapes_3/cat_1/prototype_1.png>
                    <span class=""word""><b>Press left arrow key if the shape looks like this one.</b></span>
                </div>
                <div class=""photos"">
                    <img class=""image"" src=./stimuli//pack_noise_shapes_3/cat_2/prototype_2.png>
                    <div class=""word""><b>Press right arrow key if the shape looks like this one.</b></div>
                </div>
            </div>
        ","arrowright","ITI","","","","","","","",""
"","","","","","html-keyboard-response","37","115031","0.0-7.0-1.0","607417a6a2b03d66922db6c1","65801700b94e79b0c0532bf4","658018eac7afa8708864d65f","2233","./stimuli//pack_noise_shapes_3/cat_1/diff_1/ex_1_1_2.mp4","arrowright","response","ArrowLeft","2","1","1","test","false","",""
"","","","","","html-keyboard-response","38","120035","0.0-7.0-2.0","607417a6a2b03d66922db6c1","65801700b94e79b0c0532bf4","658018eac7afa8708864d65f","null","<p> <font color=""red"" size=""5vw""> Wrong match! </font> </p>","null","feedback","","","","","","","0","0"
"","","","","","html-keyboard-response","39","121278","0.0-7.1-0.1","607417a6a2b03d66922db6c1","65801700b94e79b0c0532bf4","658018eac7afa8708864d65f","1240","
            
        <div style=""text-align: center; position: fixed; top: 5vh; left: 40vw;"">
            <div style=""margin:0 auto; width: 20vw; top: 8vh; font-size: 2vw""> 
            <font color=""green""> Bonus : $0 </font>
            </div>
        </div>
    
            <p> Please press any key to continue to the next movie.</p>
            <p> Remember your choices : <p>
            <div class=""container"">
                <div class=""photos"">
                    <img class=""image"" src=./stimuli//pack_noise_shapes_3/cat_1/prototype_1.png>
                    <span class=""word""><b>Press left arrow key if the shape looks like this one.</b></span>
                </div>
                <div class=""photos"">
                    <img class=""image"" src=./stimuli//pack_noise_shapes_3/cat_2/prototype_2.png>
                    <div class=""word""><b>Press right arrow key if the shape looks like this one.</b></div>
                </div>
            </div>
        ","arrowleft","ITI","","","","","","","",""
"","","","","","html-keyboard-response","40","123516","0.0-7.1-1.1","607417a6a2b03d66922db6c1","65801700b94e79b0c0532bf4","658018eac7afa8708864d65f","2235","./stimuli//pack_noise_shapes_3/cat_2/diff_1/ex_2_1_5.mp4","arrowright","response","ArrowRight","5","2","1","test","true","",""
"","","","","","html-keyboard-response","41","125031","0.0-7.1-2.1","607417a6a2b03d66922db6c1","65801700b94e79b0c0532bf4","658018eac7afa8708864d65f","null","<p> <font color=""green"" size=""5vw""> Correct match! </font> <br> <br> <font color=""green"" size=""8vw""> + $0.06 </font> </p>","null","feedback","","","","","","","0.06","0.06"
"","","","","","html-keyboard-response","42","125827","0.0-7.2-0.2","607417a6a2b03d66922db6c1","65801700b94e79b0c0532bf4","658018eac7afa8708864d65f","790","
            
        <div style=""text-align: center; position: fixed; top: 5vh; left: 40vw;"">
            <div style=""margin:0 auto; width: 20vw; top: 8vh; font-size: 2vw""> 
            <font color=""green""> Bonus : $0.06 </font>
            </div>
        </div>
    
            <p> Please press any key to continue to the next movie.</p>
            <p> Remember your choices : <p>
            <div class=""container"">
                <div class=""photos"">
                    <img class=""image"" src=./stimuli//pack_noise_shapes_3/cat_1/prototype_1.png>
                    <span class=""word""><b>Press left arrow key if the shape looks like this one.</b></span>
                </div>
                <div class=""photos"">
                    <img class=""image"" src=./stimuli//pack_noise_shapes_3/cat_2/prototype_2.png>
                    <div class=""word""><b>Press right arrow key if the shape looks like this one.</b></div>
                </div>
            </div>
        "," ","ITI","","","","","","","",""
"","","","","","html-keyboard-response","43","127507","0.0-7.2-1.2","607417a6a2b03d66922db6c1","65801700b94e79b0c0532bf4","658018eac7afa8708864d65f","1679","./stimuli//pack_noise_shapes_3/cat_2/diff_1/ex_2_1_5.mp4","arrowright","response","ArrowRight","5","2","1","test","true","",""
"","","","","","html-keyboard-response","44","129016","0.0-7.2-2.2","607417a6a2b03d66922db6c1","65801700b94e79b0c0532bf4","658018eac7afa8708864d65f","null","<p> <font color=""green"" size=""5vw""> Correct match! </font> <br> <br> <font color=""green"" size=""8vw""> + $0.07 </font> </p>","null","feedback","","","","","","","0.13","0.07"
"","","","","","html-keyboard-response","45","129806","0.0-7.3-0.3","607417a6a2b03d66922db6c1","65801700b94e79b0c0532bf4","658018eac7afa8708864d65f","788","
            
        <div style=""text-align: center; position: fixed; top: 5vh; left: 40vw;"">
            <div style=""margin:0 auto; width: 20vw; top: 8vh; font-size: 2vw""> 
            <font color=""green""> Bonus : $0.13 </font>
            </div>
        </div>
    
            <p> Please press any key to continue to the next movie.</p>
            <p> Remember your choices : <p>
            <div class=""container"">
                <div class=""photos"">
                    <img class=""image"" src=./stimuli//pack_noise_shapes_3/cat_1/prototype_1.png>
                    <span class=""word""><b>Press left arrow key if the shape looks like this one.</b></span>
                </div>
                <div class=""photos"">
                    <img class=""image"" src=./stimuli//pack_noise_shapes_3/cat_2/prototype_2.png>
                    <div class=""word""><b>Press right arrow key if the shape looks like this one.</b></div>
                </div>
            </div>
        "," ","ITI","","","","","","","",""
"","","","","","html-keyboard-response","46","131956","0.0-7.3-1.3","607417a6a2b03d66922db6c1","65801700b94e79b0c0532bf4","658018eac7afa8708864d65f","2147","./stimuli//pack_noise_shapes_3/cat_1/diff_1/ex_1_1_11.mp4","arrowleft","response","ArrowLeft","11","1","1","test","true","",""
"","","","","","html-keyboard-response","47","133471","0.0-7.3-2.3","607417a6a2b03d66922db6c1","65801700b94e79b0c0532bf4","658018eac7afa8708864d65f","null","<p> <font color=""green"" size=""5vw""> Correct match! </font> <br> <br> <font color=""green"" size=""8vw""> + $0.07 </font> </p>","null","feedback","","","","","","","0.2","0.07"
"","","","","","html-keyboard-response","48","134068","0.0-7.4-0.4","607417a6a2b03d66922db6c1","65801700b94e79b0c0532bf4","658018eac7afa8708864d65f","594","
            
        <div style=""text-align: center; position: fixed; top: 5vh; left: 40vw;"">
            <div style=""margin:0 auto; width: 20vw; top: 8vh; font-size: 2vw""> 
            <font color=""green""> Bonus : $0.2 </font>
            </div>
        </div>
    
            <p> Please press any key to continue to the next movie.</p>
            <p> Remember your choices : <p>
            <div class=""container"">
                <div class=""photos"">
                    <img class=""image"" src=./stimuli//pack_noise_shapes_3/cat_1/prototype_1.png>
                    <span class=""word""><b>Press left arrow key if the shape looks like this one.</b></span>
                </div>
                <div class=""photos"">
                    <img class=""image"" src=./stimuli//pack_noise_shapes_3/cat_2/prototype_2.png>
                    <div class=""word""><b>Press right arrow key if the shape looks like this one.</b></div>
                </div>
            </div>
        "," ","ITI","","","","","","","",""
"","","","","","html-keyboard-response","49","136188","0.0-7.4-1.4","607417a6a2b03d66922db6c1","65801700b94e79b0c0532bf4","658018eac7afa8708864d65f","2117","./stimuli//pack_noise_shapes_3/cat_2/diff_1/ex_2_1_16.mp4","arrowright","response","ArrowRight","16","2","1","test","true","",""
"","","","","","html-keyboard-response","50","137698","0.0-7.4-2.4","607417a6a2b03d66922db6c1","65801700b94e79b0c0532bf4","658018eac7afa8708864d65f","null","<p> <font color=""green"" size=""5vw""> Correct match! </font> <br> <br> <font color=""green"" size=""8vw""> + $0.07 </font> </p>","null","feedback","","","","","","","0.27","0.07"
"","","","","","html-keyboard-response","51","137744","0.0-7.5-0.5","607417a6a2b03d66922db6c1","65801700b94e79b0c0532bf4","658018eac7afa8708864d65f","44","
            
        <div style=""text-align: center; position: fixed; top: 5vh; left: 40vw;"">
            <div style=""margin:0 auto; width: 20vw; top: 8vh; font-size: 2vw""> 
            <font color=""green""> Bonus : $0.27 </font>
            </div>
        </div>
    
            <p> Please press any key to continue to the next movie.</p>
            <p> Remember your choices : <p>
            <div class=""container"">
                <div class=""photos"">
                    <img class=""image"" src=./stimuli//pack_noise_shapes_3/cat_1/prototype_1.png>
                    <span class=""word""><b>Press left arrow key if the shape looks like this one.</b></span>
                </div>
                <div class=""photos"">
                    <img class=""image"" src=./stimuli//pack_noise_shapes_3/cat_2/prototype_2.png>
                    <div class=""word""><b>Press right arrow key if the shape looks like this one.</b></div>
                </div>
            </div>
        "," ","ITI","","","","","","","",""
"","","","","","html-keyboard-response","52","140135","0.0-7.5-1.5","607417a6a2b03d66922db6c1","65801700b94e79b0c0532bf4","658018eac7afa8708864d65f","2389","./stimuli//pack_noise_shapes_3/cat_1/diff_2/ex_1_2_13.mp4","arrowleft","response","ArrowLeft","13","1","2","test","true","",""
"","","","","","html-keyboard-response","53","141646","0.0-7.5-2.5","607417a6a2b03d66922db6c1","65801700b94e79b0c0532bf4","658018eac7afa8708864d65f","null","<p> <font color=""green"" size=""5vw""> Correct match! </font> <br> <br> <font color=""green"" size=""8vw""> + $0.06 </font> </p>","null","feedback","","","","","","","0.33","0.06"
"","","","","","html-keyboard-response","54","142288","0.0-7.6-0.6","607417a6a2b03d66922db6c1","65801700b94e79b0c0532bf4","658018eac7afa8708864d65f","639","
            
        <div style=""text-align: center; position: fixed; top: 5vh; left: 40vw;"">
            <div style=""margin:0 auto; width: 20vw; top: 8vh; font-size: 2vw""> 
            <font color=""green""> Bonus : $0.33 </font>
            </div>
        </div>
    
            <p> Please press any key to continue to the next movie.</p>
            <p> Remember your choices : <p>
            <div class=""container"">
                <div class=""photos"">
                    <img class=""image"" src=./stimuli//pack_noise_shapes_3/cat_1/prototype_1.png>
                    <span class=""word""><b>Press left arrow key if the shape looks like this one.</b></span>
                </div>
                <div class=""photos"">
                    <img class=""image"" src=./stimuli//pack_noise_shapes_3/cat_2/prototype_2.png>
                    <div class=""word""><b>Press right arrow key if the shape looks like this one.</b></div>
                </div>
            </div>
        "," ","ITI","","","","","","","",""
"","","","","","html-keyboard-response","55","144719","0.0-7.6-1.6","607417a6a2b03d66922db6c1","65801700b94e79b0c0532bf4","658018eac7afa8708864d65f","2429","./stimuli//pack_noise_shapes_3/cat_1/diff_2/ex_1_2_17.mp4","arrowleft","response","ArrowLeft","17","1","2","test","true","",""
"","","","","","html-keyboard-response","56","146228","0.0-7.6-2.6","607417a6a2b03d66922db6c1","65801700b94e79b0c0532bf4","658018eac7afa8708864d65f","null","<p> <font color=""green"" size=""5vw""> Correct match! </font> <br> <br> <font color=""green"" size=""8vw""> + $0.06 </font> </p>","null","feedback","","","","","","","0.39","0.06"
"","","","","","html-keyboard-response","57","146713","0.0-7.7-0.7","607417a6a2b03d66922db6c1","65801700b94e79b0c0532bf4","658018eac7afa8708864d65f","483","
            
        <div style=""text-align: center; position: fixed; top: 5vh; left: 40vw;"">
            <div style=""margin:0 auto; width: 20vw; top: 8vh; font-size: 2vw""> 
            <font color=""green""> Bonus : $0.39 </font>
            </div>
        </div>
    
            <p> Please press any key to continue to the next movie.</p>
            <p> Remember your choices : <p>
            <div class=""container"">
                <div class=""photos"">
                    <img class=""image"" src=./stimuli//pack_noise_shapes_3/cat_1/prototype_1.png>
                    <span class=""word""><b>Press left arrow key if the shape looks like this one.</b></span>
                </div>
                <div class=""photos"">
                    <img class=""image"" src=./stimuli//pack_noise_shapes_3/cat_2/prototype_2.png>
                    <div class=""word""><b>Press right arrow key if the shape looks like this one.</b></div>
                </div>
            </div>
        "," ","ITI","","","","","","","",""
"","","","","","html-keyboard-response","58","149267","0.0-7.7-1.7","607417a6a2b03d66922db6c1","65801700b94e79b0c0532bf4","658018eac7afa8708864d65f","2551","./stimuli//pack_noise_shapes_3/cat_1/diff_2/ex_1_2_9.mp4","arrowleft","response","ArrowLeft","9","1","2","test","true","",""
"","","","","","html-keyboard-response","59","150774","0.0-7.7-2.7","607417a6a2b03d66922db6c1","65801700b94e79b0c0532bf4","658018eac7afa8708864d65f","null","<p> <font color=""green"" size=""5vw""> Correct match! </font> <br> <br> <font color=""green"" size=""8vw""> + $0.06 </font> </p>","null","feedback","","","","","","","0.45","0.06"
"","","","","","html-keyboard-response","60","151603","0.0-7.8-0.8","607417a6a2b03d66922db6c1","65801700b94e79b0c0532bf4","658018eac7afa8708864d65f","827","
            
        <div style=""text-align: center; position: fixed; top: 5vh; left: 40vw;"">
            <div style=""margin:0 auto; width: 20vw; top: 8vh; font-size: 2vw""> 
            <font color=""green""> Bonus : $0.45 </font>
            </div>
        </div>
    
            <p> Please press any key to continue to the next movie.</p>
            <p> Remember your choices : <p>
            <div class=""container"">
                <div class=""photos"">
                    <img class=""image"" src=./stimuli//pack_noise_shapes_3/cat_1/prototype_1.png>
                    <span class=""word""><b>Press left arrow key if the shape looks like this one.</b></span>
                </div>
                <div class=""photos"">
                    <img class=""image"" src=./stimuli//pack_noise_shapes_3/cat_2/prototype_2.png>
                    <div class=""word""><b>Press right arrow key if the shape looks like this one.</b></div>
                </div>
            </div>
        "," ","ITI","","","","","","","",""
"","","","","","html-keyboard-response","61","153560","0.0-7.8-1.8","607417a6a2b03d66922db6c1","65801700b94e79b0c0532bf4","658018eac7afa8708864d65f","1953","./stimuli//pack_noise_shapes_3/cat_1/diff_2/ex_1_2_11.mp4","arrowleft","response","ArrowLeft","11","1","2","test","true","",""
"","","","","","html-keyboard-response","62","155071","0.0-7.8-2.8","607417a6a2b03d66922db6c1","65801700b94e79b0c0532bf4","658018eac7afa8708864d65f","null","<p> <font color=""green"" size=""5vw""> Correct match! </font> <br> <br> <font color=""green"" size=""8vw""> + $0.07 </font> </p>","null","feedback","","","","","","","0.52","0.07"
"","","","","","html-keyboard-response","63","155127","0.0-7.9-0.9","607417a6a2b03d66922db6c1","65801700b94e79b0c0532bf4","658018eac7afa8708864d65f","49","
            
        <div style=""text-align: center; position: fixed; top: 5vh; left: 40vw;"">
            <div style=""margin:0 auto; width: 20vw; top: 8vh; font-size: 2vw""> 
            <font color=""green""> Bonus : $0.52 </font>
            </div>
        </div>
    
            <p> Please press any key to continue to the next movie.</p>
            <p> Remember your choices : <p>
            <div class=""container"">
                <div class=""photos"">
                    <img class=""image"" src=./stimuli//pack_noise_shapes_3/cat_1/prototype_1.png>
                    <span class=""word""><b>Press left arrow key if the shape looks like this one.</b></span>
                </div>
                <div class=""photos"">
                    <img class=""image"" src=./stimuli//pack_noise_shapes_3/cat_2/prototype_2.png>
                    <div class=""word""><b>Press right arrow key if the shape looks like this one.</b></div>
                </div>
            </div>
        "," ","ITI","","","","","","","",""
"","","","","","html-keyboard-response","64","157525","0.0-7.9-1.9","607417a6a2b03d66922db6c1","65801700b94e79b0c0532bf4","658018eac7afa8708864d65f","2396","./stimuli//pack_noise_shapes_3/cat_1/diff_2/ex_1_2_3.mp4","arrowleft","response","ArrowLeft","3","1","2","test","true","",""
"","","","","","html-keyboard-response","65","159038","0.0-7.9-2.9","607417a6a2b03d66922db6c1","65801700b94e79b0c0532bf4","658018eac7afa8708864d65f","null","<p> <font color=""green"" size=""5vw""> Correct match! </font> <br> <br> <font color=""green"" size=""8vw""> + $0.06 </font> </p>","null","feedback","","","","","","","0.58","0.06"
"","","","","","html-keyboard-response","66","159661","0.0-7.10-0.10","607417a6a2b03d66922db6c1","65801700b94e79b0c0532bf4","658018eac7afa8708864d65f","618","
            
        <div style=""text-align: center; position: fixed; top: 5vh; left: 40vw;"">
            <div style=""margin:0 auto; width: 20vw; top: 8vh; font-size: 2vw""> 
            <font color=""green""> Bonus : $0.58 </font>
            </div>
        </div>
    
            <p> Please press any key to continue to the next movie.</p>
            <p> Remember your choices : <p>
            <div class=""container"">
                <div class=""photos"">
                    <img class=""image"" src=./stimuli//pack_noise_shapes_3/cat_1/prototype_1.png>
                    <span class=""word""><b>Press left arrow key if the shape looks like this one.</b></span>
                </div>
                <div class=""photos"">
                    <img class=""image"" src=./stimuli//pack_noise_shapes_3/cat_2/prototype_2.png>
                    <div class=""word""><b>Press right arrow key if the shape looks like this one.</b></div>
                </div>
            </div>
        "," ","ITI","","","","","","","",""
"","","","","","html-keyboard-response","67","162112","0.0-7.10-1.10","607417a6a2b03d66922db6c1","65801700b94e79b0c0532bf4","658018eac7afa8708864d65f","2448","./stimuli//pack_noise_shapes_3/cat_1/diff_3/ex_1_3_3.mp4","arrowleft","response","ArrowLeft","3","1","3","test","true","",""
"","","","","","html-keyboard-response","68","163616","0.0-7.10-2.10","607417a6a2b03d66922db6c1","65801700b94e79b0c0532bf4","658018eac7afa8708864d65f","null","<p> <font color=""green"" size=""5vw""> Correct match! </font> <br> <br> <font color=""green"" size=""8vw""> + $0.06 </font> </p>","null","feedback","","","","","","","0.64","0.06"
"","","","","","html-keyboard-response","69","164893","0.0-7.11-0.11","607417a6a2b03d66922db6c1","65801700b94e79b0c0532bf4","658018eac7afa8708864d65f","1275","
            
        <div style=""text-align: center; position: fixed; top: 5vh; left: 40vw;"">
            <div style=""margin:0 auto; width: 20vw; top: 8vh; font-size: 2vw""> 
            <font color=""green""> Bonus : $0.64 </font>
            </div>
        </div>
    
            <p> Please press any key to continue to the next movie.</p>
            <p> Remember your choices : <p>
            <div class=""container"">
                <div class=""photos"">
                    <img class=""image"" src=./stimuli//pack_noise_shapes_3/cat_1/prototype_1.png>
                    <span class=""word""><b>Press left arrow key if the shape looks like this one.</b></span>
                </div>
                <div class=""photos"">
                    <img class=""image"" src=./stimuli//pack_noise_shapes_3/cat_2/prototype_2.png>
                    <div class=""word""><b>Press right arrow key if the shape looks like this one.</b></div>
                </div>
            </div>
        "," ","ITI","","","","","","","",""
"","","","","","html-keyboard-response","70","167245","0.0-7.11-1.11","607417a6a2b03d66922db6c1","65801700b94e79b0c0532bf4","658018eac7afa8708864d65f","2348","./stimuli//pack_noise_shapes_3/cat_1/diff_3/ex_1_3_9.mp4","arrowleft","response","ArrowLeft","9","1","3","test","true","",""
"","","","","","html-keyboard-response","71","168750","0.0-7.11-2.11","607417a6a2b03d66922db6c1","65801700b94e79b0c0532bf4","658018eac7afa8708864d65f","null","<p> <font color=""green"" size=""5vw""> Correct match! </font> <br> <br> <font color=""green"" size=""8vw""> + $0.06 </font> </p>","null","feedback","","","","","","","0.7","0.06"
"","","","","","html-keyboard-response","72","169417","0.0-7.12-0.12","607417a6a2b03d66922db6c1","65801700b94e79b0c0532bf4","658018eac7afa8708864d65f","661","
            
        <div style=""text-align: center; position: fixed; top: 5vh; left: 40vw;"">
            <div style=""margin:0 auto; width: 20vw; top: 8vh; font-size: 2vw""> 
            <font color=""green""> Bonus : $0.7 </font>
            </div>
        </div>
    
            <p> Please press any key to continue to the next movie.</p>
            <p> Remember your choices : <p>
            <div class=""container"">
                <div class=""photos"">
                    <img class=""image"" src=./stimuli//pack_noise_shapes_3/cat_1/prototype_1.png>
                    <span class=""word""><b>Press left arrow key if the shape looks like this one.</b></span>
                </div>
                <div class=""photos"">
                    <img class=""image"" src=./stimuli//pack_noise_shapes_3/cat_2/prototype_2.png>
                    <div class=""word""><b>Press right arrow key if the shape looks like this one.</b></div>
                </div>
            </div>
        "," ","ITI","","","","","","","",""
"","","","","","html-keyboard-response","73","171606","0.0-7.12-1.12","607417a6a2b03d66922db6c1","65801700b94e79b0c0532bf4","658018eac7afa8708864d65f","2186","./stimuli//pack_noise_shapes_3/cat_1/diff_3/ex_1_3_6.mp4","arrowleft","response","ArrowLeft","6","1","3","test","true","",""
"","","","","","html-keyboard-response","74","173118","0.0-7.12-2.12","607417a6a2b03d66922db6c1","65801700b94e79b0c0532bf4","658018eac7afa8708864d65f","null","<p> <font color=""green"" size=""5vw""> Correct match! </font> <br> <br> <font color=""green"" size=""8vw""> + $0.06 </font> </p>","null","feedback","","","","","","","0.76","0.06"
"","","","","","html-keyboard-response","75","173665","0.0-7.13-0.13","607417a6a2b03d66922db6c1","65801700b94e79b0c0532bf4","658018eac7afa8708864d65f","545","
            
        <div style=""text-align: center; position: fixed; top: 5vh; left: 40vw;"">
            <div style=""margin:0 auto; width: 20vw; top: 8vh; font-size: 2vw""> 
            <font color=""green""> Bonus : $0.76 </font>
            </div>
        </div>
    
            <p> Please press any key to continue to the next movie.</p>
            <p> Remember your choices : <p>
            <div class=""container"">
                <div class=""photos"">
                    <img class=""image"" src=./stimuli//pack_noise_shapes_3/cat_1/prototype_1.png>
                    <span class=""word""><b>Press left arrow key if the shape looks like this one.</b></span>
                </div>
                <div class=""photos"">
                    <img class=""image"" src=./stimuli//pack_noise_shapes_3/cat_2/prototype_2.png>
                    <div class=""word""><b>Press right arrow key if the shape looks like this one.</b></div>
                </div>
            </div>
        "," ","ITI","","","","","","","",""
"","","","","","html-keyboard-response","76","176144","0.0-7.13-1.13","607417a6a2b03d66922db6c1","65801700b94e79b0c0532bf4","658018eac7afa8708864d65f","2476","./stimuli//pack_noise_shapes_3/cat_2/diff_3/ex_2_3_14.mp4","arrowright","response","ArrowRight","14","2","3","test","true","",""
"","","","","","html-keyboard-response","77","177661","0.0-7.13-2.13","607417a6a2b03d66922db6c1","65801700b94e79b0c0532bf4","658018eac7afa8708864d65f","null","<p> <font color=""green"" size=""5vw""> Correct match! </font> <br> <br> <font color=""green"" size=""8vw""> + $0.06 </font> </p>","null","feedback","","","","","","","0.82","0.06"
"","","","","","html-keyboard-response","78","177903","0.0-7.14-0.14","607417a6a2b03d66922db6c1","65801700b94e79b0c0532bf4","658018eac7afa8708864d65f","236","
            
        <div style=""text-align: center; position: fixed; top: 5vh; left: 40vw;"">
            <div style=""margin:0 auto; width: 20vw; top: 8vh; font-size: 2vw""> 
            <font color=""green""> Bonus : $0.82 </font>
            </div>
        </div>
    
            <p> Please press any key to continue to the next movie.</p>
            <p> Remember your choices : <p>
            <div class=""container"">
                <div class=""photos"">
                    <img class=""image"" src=./stimuli//pack_noise_shapes_3/cat_1/prototype_1.png>
                    <span class=""word""><b>Press left arrow key if the shape looks like this one.</b></span>
                </div>
                <div class=""photos"">
                    <img class=""image"" src=./stimuli//pack_noise_shapes_3/cat_2/prototype_2.png>
                    <div class=""word""><b>Press right arrow key if the shape looks like this one.</b></div>
                </div>
            </div>
        "," ","ITI","","","","","","","",""
"","","","","","html-keyboard-response","79","180424","0.0-7.14-1.14","607417a6a2b03d66922db6c1","65801700b94e79b0c0532bf4","658018eac7afa8708864d65f","2518","./stimuli//pack_noise_shapes_3/cat_1/diff_3/ex_1_3_6.mp4","arrowleft","response","ArrowLeft","6","1","3","test","true","",""
"","","","","","html-keyboard-response","80","181933","0.0-7.14-2.14","607417a6a2b03d66922db6c1","65801700b94e79b0c0532bf4","658018eac7afa8708864d65f","null","<p> <font color=""green"" size=""5vw""> Correct match! </font> <br> <br> <font color=""green"" size=""8vw""> + $0.11 </font> </p>","null","feedback","","","","","","","0.93","0.11"
"","","","","","html-keyboard-response","81","182541","0.0-7.15-0.15","607417a6a2b03d66922db6c1","65801700b94e79b0c0532bf4","658018eac7afa8708864d65f","605","
            
        <div style=""text-align: center; position: fixed; top: 5vh; left: 40vw;"">
            <div style=""margin:0 auto; width: 20vw; top: 8vh; font-size: 2vw""> 
            <font color=""green""> Bonus : $0.93 </font>
            </div>
        </div>
    
            <p> Please press any key to continue to the next movie.</p>
            <p> Remember your choices : <p>
            <div class=""container"">
                <div class=""photos"">
                    <img class=""image"" src=./stimuli//pack_noise_shapes_3/cat_1/prototype_1.png>
                    <span class=""word""><b>Press left arrow key if the shape looks like this one.</b></span>
                </div>
                <div class=""photos"">
                    <img class=""image"" src=./stimuli//pack_noise_shapes_3/cat_2/prototype_2.png>
                    <div class=""word""><b>Press right arrow key if the shape looks like this one.</b></div>
                </div>
            </div>
        "," ","ITI","","","","","","","",""
"","","","","","html-keyboard-response","82","185152","0.0-7.15-1.15","607417a6a2b03d66922db6c1","65801700b94e79b0c0532bf4","658018eac7afa8708864d65f","2608","./stimuli//pack_noise_shapes_3/cat_1/diff_4/ex_1_4_12.mp4","arrowleft","response","ArrowLeft","12","1","4","test","true","",""
"","","","","","html-keyboard-response","83","186660","0.0-7.15-2.15","607417a6a2b03d66922db6c1","65801700b94e79b0c0532bf4","658018eac7afa8708864d65f","null","<p> <font color=""green"" size=""5vw""> Correct match! </font> <br> <br> <font color=""green"" size=""8vw""> + $0.11 </font> </p>","null","feedback","","","","","","","1.04","0.11"
"","","","","","html-keyboard-response","84","187683","0.0-7.16-0.16","607417a6a2b03d66922db6c1","65801700b94e79b0c0532bf4","658018eac7afa8708864d65f","1021","
            
        <div style=""text-align: center; position: fixed; top: 5vh; left: 40vw;"">
            <div style=""margin:0 auto; width: 20vw; top: 8vh; font-size: 2vw""> 
            <font color=""green""> Bonus : $1.04 </font>
            </div>
        </div>
    
            <p> Please press any key to continue to the next movie.</p>
            <p> Remember your choices : <p>
            <div class=""container"">
                <div class=""photos"">
                    <img class=""image"" src=./stimuli//pack_noise_shapes_3/cat_1/prototype_1.png>
                    <span class=""word""><b>Press left arrow key if the shape looks like this one.</b></span>
                </div>
                <div class=""photos"">
                    <img class=""image"" src=./stimuli//pack_noise_shapes_3/cat_2/prototype_2.png>
                    <div class=""word""><b>Press right arrow key if the shape looks like this one.</b></div>
                </div>
            </div>
        "," ","ITI","","","","","","","",""
"","","","","","html-keyboard-response","85","189911","0.0-7.16-1.16","607417a6a2b03d66922db6c1","65801700b94e79b0c0532bf4","658018eac7afa8708864d65f","2227","./stimuli//pack_noise_shapes_3/cat_1/diff_4/ex_1_4_11.mp4","arrowleft","response","ArrowLeft","11","1","4","test","true","",""
"","","","","","html-keyboard-response","86","191427","0.0-7.16-2.16","607417a6a2b03d66922db6c1","65801700b94e79b0c0532bf4","658018eac7afa8708864d65f","null","<p> <font color=""green"" size=""5vw""> Correct match! </font> <br> <br> <font color=""green"" size=""8vw""> + $0.11 </font> </p>","null","feedback","","","","","","","1.15","0.11"
"","","","","","html-keyboard-response","87","192074","0.0-7.17-0.17","607417a6a2b03d66922db6c1","65801700b94e79b0c0532bf4","658018eac7afa8708864d65f","646","
            
        <div style=""text-align: center; position: fixed; top: 5vh; left: 40vw;"">
            <div style=""margin:0 auto; width: 20vw; top: 8vh; font-size: 2vw""> 
            <font color=""green""> Bonus : $1.15 </font>
            </div>
        </div>
    
            <p> Please press any key to continue to the next movie.</p>
            <p> Remember your choices : <p>
            <div class=""container"">
                <div class=""photos"">
                    <img class=""image"" src=./stimuli//pack_noise_shapes_3/cat_1/prototype_1.png>
                    <span class=""word""><b>Press left arrow key if the shape looks like this one.</b></span>
                </div>
                <div class=""photos"">
                    <img class=""image"" src=./stimuli//pack_noise_shapes_3/cat_2/prototype_2.png>
                    <div class=""word""><b>Press right arrow key if the shape looks like this one.</b></div>
                </div>
            </div>
        "," ","ITI","","","","","","","",""
"","","","","","html-keyboard-response","88","194559","0.0-7.17-1.17","607417a6a2b03d66922db6c1","65801700b94e79b0c0532bf4","658018eac7afa8708864d65f","2481","./stimuli//pack_noise_shapes_3/cat_2/diff_4/ex_2_4_10.mp4","arrowright","response","ArrowRight","10","2","4","test","true","",""
"","","","","","html-keyboard-response","89","196074","0.0-7.17-2.17","607417a6a2b03d66922db6c1","65801700b94e79b0c0532bf4","658018eac7afa8708864d65f","null","<p> <font color=""green"" size=""5vw""> Correct match! </font> <br> <br> <font color=""green"" size=""8vw""> + $0.11 </font> </p>","null","feedback","","","","","","","1.26","0.11"
"","","","","","html-keyboard-response","90","196587","0.0-7.18-0.18","607417a6a2b03d66922db6c1","65801700b94e79b0c0532bf4","658018eac7afa8708864d65f","509","
            
        <div style=""text-align: center; position: fixed; top: 5vh; left: 40vw;"">
            <div style=""margin:0 auto; width: 20vw; top: 8vh; font-size: 2vw""> 
            <font color=""green""> Bonus : $1.26 </font>
            </div>
        </div>
    
            <p> Please press any key to continue to the next movie.</p>
            <p> Remember your choices : <p>
            <div class=""container"">
                <div class=""photos"">
                    <img class=""image"" src=./stimuli//pack_noise_shapes_3/cat_1/prototype_1.png>
                    <span class=""word""><b>Press left arrow key if the shape looks like this one.</b></span>
                </div>
                <div class=""photos"">
                    <img class=""image"" src=./stimuli//pack_noise_shapes_3/cat_2/prototype_2.png>
                    <div class=""word""><b>Press right arrow key if the shape looks like this one.</b></div>
                </div>
            </div>
        "," ","ITI","","","","","","","",""
"","","","","","html-keyboard-response","91","198347","0.0-7.18-1.18","607417a6a2b03d66922db6c1","65801700b94e79b0c0532bf4","658018eac7afa8708864d65f","1758","./stimuli//pack_noise_shapes_3/cat_2/diff_4/ex_2_4_10.mp4","arrowright","response","ArrowRight","10","2","4","test","true","",""
"","","","","","html-keyboard-response","92","199857","0.0-7.18-2.18","607417a6a2b03d66922db6c1","65801700b94e79b0c0532bf4","658018eac7afa8708864d65f","null","<p> <font color=""green"" size=""5vw""> Correct match! </font> <br> <br> <font color=""green"" size=""8vw""> + $0.12 </font> </p>","null","feedback","","","","","","","1.38","0.12"
"","","","","","html-keyboard-response","93","200506","0.0-7.19-0.19","607417a6a2b03d66922db6c1","65801700b94e79b0c0532bf4","658018eac7afa8708864d65f","643","
            
        <div style=""text-align: center; position: fixed; top: 5vh; left: 40vw;"">
            <div style=""margin:0 auto; width: 20vw; top: 8vh; font-size: 2vw""> 
            <font color=""green""> Bonus : $1.38 </font>
            </div>
        </div>
    
            <p> Please press any key to continue to the next movie.</p>
            <p> Remember your choices : <p>
            <div class=""container"">
                <div class=""photos"">
                    <img class=""image"" src=./stimuli//pack_noise_shapes_3/cat_1/prototype_1.png>
                    <span class=""word""><b>Press left arrow key if the shape looks like this one.</b></span>
                </div>
                <div class=""photos"">
                    <img class=""image"" src=./stimuli//pack_noise_shapes_3/cat_2/prototype_2.png>
                    <div class=""word""><b>Press right arrow key if the shape looks like this one.</b></div>
                </div>
            </div>
        "," ","ITI","","","","","","","",""
"","","","","","html-keyboard-response","94","202710","0.0-7.19-1.19","607417a6a2b03d66922db6c1","65801700b94e79b0c0532bf4","658018eac7afa8708864d65f","2200","./stimuli//pack_noise_shapes_3/cat_2/diff_4/ex_2_4_5.mp4","arrowright","response","ArrowRight","5","2","4","test","true","",""
"","","","","","html-keyboard-response","95","204221","0.0-7.19-2.19","607417a6a2b03d66922db6c1","65801700b94e79b0c0532bf4","658018eac7afa8708864d65f","null","<p> <font color=""green"" size=""5vw""> Correct match! </font> <br> <br> <font color=""green"" size=""8vw""> + $0.11 </font> </p>","null","feedback","","","","","","","1.49","0.11"
"","","","","","html-keyboard-response","96","204272","0.0-7.20-0.20","607417a6a2b03d66922db6c1","65801700b94e79b0c0532bf4","658018eac7afa8708864d65f","49","
            
        <div style=""text-align: center; position: fixed; top: 5vh; left: 40vw;"">
            <div style=""margin:0 auto; width: 20vw; top: 8vh; font-size: 2vw""> 
            <font color=""green""> Bonus : $1.49 </font>
            </div>
        </div>
    
            <p> Please press any key to continue to the next movie.</p>
            <p> Remember your choices : <p>
            <div class=""container"">
                <div class=""photos"">
                    <img class=""image"" src=./stimuli//pack_noise_shapes_3/cat_1/prototype_1.png>
                    <span class=""word""><b>Press left arrow key if the shape looks like this one.</b></span>
                </div>
                <div class=""photos"">
                    <img class=""image"" src=./stimuli//pack_noise_shapes_3/cat_2/prototype_2.png>
                    <div class=""word""><b>Press right arrow key if the shape looks like this one.</b></div>
                </div>
            </div>
        "," ","ITI","","","","","","","",""
"","","","","","html-keyboard-response","97","206705","0.0-7.20-1.20","607417a6a2b03d66922db6c1","65801700b94e79b0c0532bf4","658018eac7afa8708864d65f","2430","./stimuli//pack_noise_shapes_3/cat_1/diff_5/ex_1_5_2.mp4","arrowright","response","ArrowLeft","2","1","5","test","false","",""
"","","","","","html-keyboard-response","98","211721","0.0-7.20-2.20","607417a6a2b03d66922db6c1","65801700b94e79b0c0532bf4","658018eac7afa8708864d65f","null","<p> <font color=""red"" size=""5vw""> Wrong match! </font> <br> <br> <font color=""red"" size=""8vw""> - $0.1 </font> </p>","null","feedback","","","","","","","1.39","-0.1"
"","","","","","html-keyboard-response","99","212716","0.0-7.21-0.21","607417a6a2b03d66922db6c1","65801700b94e79b0c0532bf4","658018eac7afa8708864d65f","994","
            
        <div style=""text-align: center; position: fixed; top: 5vh; left: 40vw;"">
            <div style=""margin:0 auto; width: 20vw; top: 8vh; font-size: 2vw""> 
            <font color=""green""> Bonus : $1.39 </font>
            </div>
        </div>
    
            <p> Please press any key to continue to the next movie.</p>
            <p> Remember your choices : <p>
            <div class=""container"">
                <div class=""photos"">
                    <img class=""image"" src=./stimuli//pack_noise_shapes_3/cat_1/prototype_1.png>
                    <span class=""word""><b>Press left arrow key if the shape looks like this one.</b></span>
                </div>
                <div class=""photos"">
                    <img class=""image"" src=./stimuli//pack_noise_shapes_3/cat_2/prototype_2.png>
                    <div class=""word""><b>Press right arrow key if the shape looks like this one.</b></div>
                </div>
            </div>
        "," ","ITI","","","","","","","",""
"","","","","","html-keyboard-response","100","215523","0.0-7.21-1.21","607417a6a2b03d66922db6c1","65801700b94e79b0c0532bf4","658018eac7afa8708864d65f","2805","./stimuli//pack_noise_shapes_3/cat_1/diff_5/ex_1_5_11.mp4","arrowleft","response","ArrowLeft","11","1","5","test","true","",""
"","","","","","html-keyboard-response","101","217035","0.0-7.21-2.21","607417a6a2b03d66922db6c1","65801700b94e79b0c0532bf4","658018eac7afa8708864d65f","null","<p> <font color=""green"" size=""5vw""> Correct match! </font> <br> <br> <font color=""green"" size=""8vw""> + $0.11 </font> </p>","null","feedback","","","","","","","1.5","0.11"
"","","","","","html-keyboard-response","102","217046","0.0-7.22-0.22","607417a6a2b03d66922db6c1","65801700b94e79b0c0532bf4","658018eac7afa8708864d65f","9","
            
        <div style=""text-align: center; position: fixed; top: 5vh; left: 40vw;"">
            <div style=""margin:0 auto; width: 20vw; top: 8vh; font-size: 2vw""> 
            <font color=""green""> Bonus : $1.5 </font>
            </div>
        </div>
    
            <p> Please press any key to continue to the next movie.</p>
            <p> Remember your choices : <p>
            <div class=""container"">
                <div class=""photos"">
                    <img class=""image"" src=./stimuli//pack_noise_shapes_3/cat_1/prototype_1.png>
                    <span class=""word""><b>Press left arrow key if the shape looks like this one.</b></span>
                </div>
                <div class=""photos"">
                    <img class=""image"" src=./stimuli//pack_noise_shapes_3/cat_2/prototype_2.png>
                    <div class=""word""><b>Press right arrow key if the shape looks like this one.</b></div>
                </div>
            </div>
        "," ","ITI","","","","","","","",""
"","","","","","html-keyboard-response","103","220034","0.0-7.22-1.22","607417a6a2b03d66922db6c1","65801700b94e79b0c0532bf4","658018eac7afa8708864d65f","2985","./stimuli//pack_noise_shapes_3/cat_1/diff_5/ex_1_5_3.mp4","arrowright","response","ArrowLeft","3","1","5","test","false","",""
"","","","","","html-keyboard-response","104","225049","0.0-7.22-2.22","607417a6a2b03d66922db6c1","65801700b94e79b0c0532bf4","658018eac7afa8708864d65f","null","<p> <font color=""red"" size=""5vw""> Wrong match! </font> <br> <br> <font color=""red"" size=""8vw""> - $0.1 </font> </p>","null","feedback","","","","","","","1.4","-0.1"
"","","","","","html-keyboard-response","105","227297","0.0-7.23-0.23","607417a6a2b03d66922db6c1","65801700b94e79b0c0532bf4","658018eac7afa8708864d65f","2246","
            
        <div style=""text-align: center; position: fixed; top: 5vh; left: 40vw;"">
            <div style=""margin:0 auto; width: 20vw; top: 8vh; font-size: 2vw""> 
            <font color=""green""> Bonus : $1.4 </font>
            </div>
        </div>
    
            <p> Please press any key to continue to the next movie.</p>
            <p> Remember your choices : <p>
            <div class=""container"">
                <div class=""photos"">
                    <img class=""image"" src=./stimuli//pack_noise_shapes_3/cat_1/prototype_1.png>
                    <span class=""word""><b>Press left arrow key if the shape looks like this one.</b></span>
                </div>
                <div class=""photos"">
                    <img class=""image"" src=./stimuli//pack_noise_shapes_3/cat_2/prototype_2.png>
                    <div class=""word""><b>Press right arrow key if the shape looks like this one.</b></div>
                </div>
            </div>
        "," ","ITI","","","","","","","",""
"","","","","","html-keyboard-response","106","229930","0.0-7.23-1.23","607417a6a2b03d66922db6c1","65801700b94e79b0c0532bf4","658018eac7afa8708864d65f","2632","./stimuli//pack_noise_shapes_3/cat_2/diff_5/ex_2_5_17.mp4","arrowright","response","ArrowRight","17","2","5","test","true","",""
"","","","","","html-keyboard-response","107","231439","0.0-7.23-2.23","607417a6a2b03d66922db6c1","65801700b94e79b0c0532bf4","658018eac7afa8708864d65f","null","<p> <font color=""green"" size=""5vw""> Correct match! </font> <br> <br> <font color=""green"" size=""8vw""> + $0.11 </font> </p>","null","feedback","","","","","","","1.51","0.11"
"","","","","","html-keyboard-response","108","233398","0.0-7.24-0.24","607417a6a2b03d66922db6c1","65801700b94e79b0c0532bf4","658018eac7afa8708864d65f","1958","
            
        <div style=""text-align: center; position: fixed; top: 5vh; left: 40vw;"">
            <div style=""margin:0 auto; width: 20vw; top: 8vh; font-size: 2vw""> 
            <font color=""green""> Bonus : $1.51 </font>
            </div>
        </div>
    
            <p> Please press any key to continue to the next movie.</p>
            <p> Remember your choices : <p>
            <div class=""container"">
                <div class=""photos"">
                    <img class=""image"" src=./stimuli//pack_noise_shapes_3/cat_1/prototype_1.png>
                    <span class=""word""><b>Press left arrow key if the shape looks like this one.</b></span>
                </div>
                <div class=""photos"">
                    <img class=""image"" src=./stimuli//pack_noise_shapes_3/cat_2/prototype_2.png>
                    <div class=""word""><b>Press right arrow key if the shape looks like this one.</b></div>
                </div>
            </div>
        "," ","ITI","","","","","","","",""
"","","","","","html-keyboard-response","109","235966","0.0-7.24-1.24","607417a6a2b03d66922db6c1","65801700b94e79b0c0532bf4","658018eac7afa8708864d65f","2565","./stimuli//pack_noise_shapes_3/cat_2/diff_5/ex_2_5_5.mp4","arrowleft","response","ArrowRight","5","2","5","test","false","",""
"","","","","","html-keyboard-response","110","240976","0.0-7.24-2.24","607417a6a2b03d66922db6c1","65801700b94e79b0c0532bf4","658018eac7afa8708864d65f","null","<p> <font color=""red"" size=""5vw""> Wrong match! </font> <br> <br> <font color=""red"" size=""8vw""> - $0.1 </font> </p>","null","feedback","","","","","","","1.41","-0.1"
"","","","","","html-keyboard-response","111","241895","0.0-7.25-0.25","607417a6a2b03d66922db6c1","65801700b94e79b0c0532bf4","658018eac7afa8708864d65f","917","
            
        <div style=""text-align: center; position: fixed; top: 5vh; left: 40vw;"">
            <div style=""margin:0 auto; width: 20vw; top: 8vh; font-size: 2vw""> 
            <font color=""green""> Bonus : $1.41 </font>
            </div>
        </div>
    
            <p> Please press any key to continue to the next movie.</p>
            <p> Remember your choices : <p>
            <div class=""container"">
                <div class=""photos"">
                    <img class=""image"" src=./stimuli//pack_noise_shapes_3/cat_1/prototype_1.png>
                    <span class=""word""><b>Press left arrow key if the shape looks like this one.</b></span>
                </div>
                <div class=""photos"">
                    <img class=""image"" src=./stimuli//pack_noise_shapes_3/cat_2/prototype_2.png>
                    <div class=""word""><b>Press right arrow key if the shape looks like this one.</b></div>
                </div>
            </div>
        "," ","ITI","","","","","","","",""
"","","","","","html-keyboard-response","112","244105","0.0-7.25-1.25","607417a6a2b03d66922db6c1","65801700b94e79b0c0532bf4","658018eac7afa8708864d65f","2206","./stimuli//pack_noise_shapes_3/cat_2/diff_4/ex_2_4_10.mp4","arrowright","response","ArrowRight","10","2","4","test","true","",""
"","","","","","html-keyboard-response","113","245620","0.0-7.25-2.25","607417a6a2b03d66922db6c1","65801700b94e79b0c0532bf4","658018eac7afa8708864d65f","null","<p> <font color=""green"" size=""5vw""> Correct match! </font> <br> <br> <font color=""green"" size=""8vw""> + $0.11 </font> </p>","null","feedback","","","","","","","1.52","0.11"
"","","","","","html-keyboard-response","114","247364","0.0-7.26-0.26","607417a6a2b03d66922db6c1","65801700b94e79b0c0532bf4","658018eac7afa8708864d65f","1742","
            
        <div style=""text-align: center; position: fixed; top: 5vh; left: 40vw;"">
            <div style=""margin:0 auto; width: 20vw; top: 8vh; font-size: 2vw""> 
            <font color=""green""> Bonus : $1.52 </font>
            </div>
        </div>
    
            <p> Please press any key to continue to the next movie.</p>
            <p> Remember your choices : <p>
            <div class=""container"">
                <div class=""photos"">
                    <img class=""image"" src=./stimuli//pack_noise_shapes_3/cat_1/prototype_1.png>
                    <span class=""word""><b>Press left arrow key if the shape looks like this one.</b></span>
                </div>
                <div class=""photos"">
                    <img class=""image"" src=./stimuli//pack_noise_shapes_3/cat_2/prototype_2.png>
                    <div class=""word""><b>Press right arrow key if the shape looks like this one.</b></div>
                </div>
            </div>
        "," ","ITI","","","","","","","",""
"","","","","","html-keyboard-response","115","250576","0.0-7.26-1.26","607417a6a2b03d66922db6c1","65801700b94e79b0c0532bf4","658018eac7afa8708864d65f","3208","./stimuli//pack_noise_shapes_3/cat_1/diff_4/ex_1_4_2.mp4","arrowleft","response","ArrowLeft","2","1","4","test","true","",""
"","","","","","html-keyboard-response","116","252089","0.0-7.26-2.26","607417a6a2b03d66922db6c1","65801700b94e79b0c0532bf4","658018eac7afa8708864d65f","null","<p> <font color=""green"" size=""5vw""> Correct match! </font> <br> <br> <font color=""green"" size=""8vw""> + $0.1 </font> </p>","null","feedback","","","","","","","1.62","0.1"
"","","","","","html-keyboard-response","117","253306","0.0-7.27-0.27","607417a6a2b03d66922db6c1","65801700b94e79b0c0532bf4","658018eac7afa8708864d65f","1214","
            
        <div style=""text-align: center; position: fixed; top: 5vh; left: 40vw;"">
            <div style=""margin:0 auto; width: 20vw; top: 8vh; font-size: 2vw""> 
            <font color=""green""> Bonus : $1.62 </font>
            </div>
        </div>
    
            <p> Please press any key to continue to the next movie.</p>
            <p> Remember your choices : <p>
            <div class=""container"">
                <div class=""photos"">
                    <img class=""image"" src=./stimuli//pack_noise_shapes_3/cat_1/prototype_1.png>
                    <span class=""word""><b>Press left arrow key if the shape looks like this one.</b></span>
                </div>
                <div class=""photos"">
                    <img class=""image"" src=./stimuli//pack_noise_shapes_3/cat_2/prototype_2.png>
                    <div class=""word""><b>Press right arrow key if the shape looks like this one.</b></div>
                </div>
            </div>
        "," ","ITI","","","","","","","",""
"","","","","","html-keyboard-response","118","255781","0.0-7.27-1.27","607417a6a2b03d66922db6c1","65801700b94e79b0c0532bf4","658018eac7afa8708864d65f","2471","./stimuli//pack_noise_shapes_3/cat_2/diff_4/ex_2_4_2.mp4","arrowleft","response","ArrowRight","2","2","4","test","false","",""
"","","","","","html-keyboard-response","119","260784","0.0-7.27-2.27","607417a6a2b03d66922db6c1","65801700b94e79b0c0532bf4","658018eac7afa8708864d65f","null","<p> <font color=""red"" size=""5vw""> Wrong match! </font> <br> <br> <font color=""red"" size=""8vw""> - $0.1 </font> </p>","null","feedback","","","","","","","1.52","-0.1"
"","","","","","html-keyboard-response","120","262143","0.0-7.28-0.28","607417a6a2b03d66922db6c1","65801700b94e79b0c0532bf4","658018eac7afa8708864d65f","1358","
            
        <div style=""text-align: center; position: fixed; top: 5vh; left: 40vw;"">
            <div style=""margin:0 auto; width: 20vw; top: 8vh; font-size: 2vw""> 
            <font color=""green""> Bonus : $1.52 </font>
            </div>
        </div>
    
            <p> Please press any key to continue to the next movie.</p>
            <p> Remember your choices : <p>
            <div class=""container"">
                <div class=""photos"">
                    <img class=""image"" src=./stimuli//pack_noise_shapes_3/cat_1/prototype_1.png>
                    <span class=""word""><b>Press left arrow key if the shape looks like this one.</b></span>
                </div>
                <div class=""photos"">
                    <img class=""image"" src=./stimuli//pack_noise_shapes_3/cat_2/prototype_2.png>
                    <div class=""word""><b>Press right arrow key if the shape looks like this one.</b></div>
                </div>
            </div>
        "," ","ITI","","","","","","","",""
"","","","","","html-keyboard-response","121","264471","0.0-7.28-1.28","607417a6a2b03d66922db6c1","65801700b94e79b0c0532bf4","658018eac7afa8708864d65f","2326","./stimuli//pack_noise_shapes_3/cat_2/diff_4/ex_2_4_16.mp4","arrowright","response","ArrowRight","16","2","4","test","true","",""
"","","","","","html-keyboard-response","122","265984","0.0-7.28-2.28","607417a6a2b03d66922db6c1","65801700b94e79b0c0532bf4","658018eac7afa8708864d65f","null","<p> <font color=""green"" size=""5vw""> Correct match! </font> <br> <br> <font color=""green"" size=""8vw""> + $0.11 </font> </p>","null","feedback","","","","","","","1.63","0.11"
"","","","","","html-keyboard-response","123","267300","0.0-7.29-0.29","607417a6a2b03d66922db6c1","65801700b94e79b0c0532bf4","658018eac7afa8708864d65f","1310","
            
        <div style=""text-align: center; position: fixed; top: 5vh; left: 40vw;"">
            <div style=""margin:0 auto; width: 20vw; top: 8vh; font-size: 2vw""> 
            <font color=""green""> Bonus : $1.63 </font>
            </div>
        </div>
    
            <p> Please press any key to continue to the next movie.</p>
            <p> Remember your choices : <p>
            <div class=""container"">
                <div class=""photos"">
                    <img class=""image"" src=./stimuli//pack_noise_shapes_3/cat_1/prototype_1.png>
                    <span class=""word""><b>Press left arrow key if the shape looks like this one.</b></span>
                </div>
                <div class=""photos"">
                    <img class=""image"" src=./stimuli//pack_noise_shapes_3/cat_2/prototype_2.png>
                    <div class=""word""><b>Press right arrow key if the shape looks like this one.</b></div>
                </div>
            </div>
        "," ","ITI","","","","","","","",""
"","","","","","html-keyboard-response","124","269917","0.0-7.29-1.29","607417a6a2b03d66922db6c1","65801700b94e79b0c0532bf4","658018eac7afa8708864d65f","2613","./stimuli//pack_noise_shapes_3/cat_1/diff_4/ex_1_4_10.mp4","arrowleft","response","ArrowLeft","10","1","4","test","true","",""
"","","","","","html-keyboard-response","125","271425","0.0-7.29-2.29","607417a6a2b03d66922db6c1","65801700b94e79b0c0532bf4","658018eac7afa8708864d65f","null","<p> <font color=""green"" size=""5vw""> Correct match! </font> <br> <br> <font color=""green"" size=""8vw""> + $0.11 </font> </p>","null","feedback","","","","","","","1.74","0.11"
"","","","","","html-keyboard-response","126","272430","0.0-7.30-0.30","607417a6a2b03d66922db6c1","65801700b94e79b0c0532bf4","658018eac7afa8708864d65f","1005","
            
        <div style=""text-align: center; position: fixed; top: 5vh; left: 40vw;"">
            <div style=""margin:0 auto; width: 20vw; top: 8vh; font-size: 2vw""> 
            <font color=""green""> Bonus : $1.74 </font>
            </div>
        </div>
    
            <p> Please press any key to continue to the next movie.</p>
            <p> Remember your choices : <p>
            <div class=""container"">
                <div class=""photos"">
                    <img class=""image"" src=./stimuli//pack_noise_shapes_3/cat_1/prototype_1.png>
                    <span class=""word""><b>Press left arrow key if the shape looks like this one.</b></span>
                </div>
                <div class=""photos"">
                    <img class=""image"" src=./stimuli//pack_noise_shapes_3/cat_2/prototype_2.png>
                    <div class=""word""><b>Press right arrow key if the shape looks like this one.</b></div>
                </div>
            </div>
        "," ","ITI","","","","","","","",""
"","","","","","html-keyboard-response","127","275005","0.0-7.30-1.30","607417a6a2b03d66922db6c1","65801700b94e79b0c0532bf4","658018eac7afa8708864d65f","2572","./stimuli//pack_noise_shapes_3/cat_1/diff_5/ex_1_5_11.mp4","arrowleft","response","ArrowLeft","11","1","5","test","true","",""
"","","","","","html-keyboard-response","128","276511","0.0-7.30-2.30","607417a6a2b03d66922db6c1","65801700b94e79b0c0532bf4","658018eac7afa8708864d65f","null","<p> <font color=""green"" size=""5vw""> Correct match! </font> <br> <br> <font color=""green"" size=""8vw""> + $0.11 </font> </p>","null","feedback","","","","","","","1.85","0.11"
"","","","","","html-keyboard-response","129","277835","0.0-7.31-0.31","607417a6a2b03d66922db6c1","65801700b94e79b0c0532bf4","658018eac7afa8708864d65f","1322","
            
        <div style=""text-align: center; position: fixed; top: 5vh; left: 40vw;"">
            <div style=""margin:0 auto; width: 20vw; top: 8vh; font-size: 2vw""> 
            <font color=""green""> Bonus : $1.85 </font>
            </div>
        </div>
    
            <p> Please press any key to continue to the next movie.</p>
            <p> Remember your choices : <p>
            <div class=""container"">
                <div class=""photos"">
                    <img class=""image"" src=./stimuli//pack_noise_shapes_3/cat_1/prototype_1.png>
                    <span class=""word""><b>Press left arrow key if the shape looks like this one.</b></span>
                </div>
                <div class=""photos"">
                    <img class=""image"" src=./stimuli//pack_noise_shapes_3/cat_2/prototype_2.png>
                    <div class=""word""><b>Press right arrow key if the shape looks like this one.</b></div>
                </div>
            </div>
        "," ","ITI","","","","","","","",""
"","","","","","html-keyboard-response","130","280355","0.0-7.31-1.31","607417a6a2b03d66922db6c1","65801700b94e79b0c0532bf4","658018eac7afa8708864d65f","2517","./stimuli//pack_noise_shapes_3/cat_2/diff_5/ex_2_5_17.mp4","arrowright","response","ArrowRight","17","2","5","test","true","",""
"","","","","","html-keyboard-response","131","281861","0.0-7.31-2.31","607417a6a2b03d66922db6c1","65801700b94e79b0c0532bf4","658018eac7afa8708864d65f","null","<p> <font color=""green"" size=""5vw""> Correct match! </font> <br> <br> <font color=""green"" size=""8vw""> + $0.11 </font> </p>","null","feedback","","","","","","","1.96","0.11"
"","","","","","html-keyboard-response","132","283221","0.0-7.32-0.32","607417a6a2b03d66922db6c1","65801700b94e79b0c0532bf4","658018eac7afa8708864d65f","1359","
            
        <div style=""text-align: center; position: fixed; top: 5vh; left: 40vw;"">
            <div style=""margin:0 auto; width: 20vw; top: 8vh; font-size: 2vw""> 
            <font color=""green""> Bonus : $1.96 </font>
            </div>
        </div>
    
            <p> Please press any key to continue to the next movie.</p>
            <p> Remember your choices : <p>
            <div class=""container"">
                <div class=""photos"">
                    <img class=""image"" src=./stimuli//pack_noise_shapes_3/cat_1/prototype_1.png>
                    <span class=""word""><b>Press left arrow key if the shape looks like this one.</b></span>
                </div>
                <div class=""photos"">
                    <img class=""image"" src=./stimuli//pack_noise_shapes_3/cat_2/prototype_2.png>
                    <div class=""word""><b>Press right arrow key if the shape looks like this one.</b></div>
                </div>
            </div>
        "," ","ITI","","","","","","","",""
"","","","","","html-keyboard-response","133","285901","0.0-7.32-1.32","607417a6a2b03d66922db6c1","65801700b94e79b0c0532bf4","658018eac7afa8708864d65f","2679","./stimuli//pack_noise_shapes_3/cat_1/diff_5/ex_1_5_3.mp4","arrowright","response","ArrowLeft","3","1","5","test","false","",""
"","","","","","html-keyboard-response","134","290910","0.0-7.32-2.32","607417a6a2b03d66922db6c1","65801700b94e79b0c0532bf4","658018eac7afa8708864d65f","null","<p> <font color=""red"" size=""5vw""> Wrong match! </font> <br> <br> <font color=""red"" size=""8vw""> - $0.1 </font> </p>","null","feedback","","","","","","","1.86","-0.1"
"","","","","","html-keyboard-response","135","292865","0.0-7.33-0.33","607417a6a2b03d66922db6c1","65801700b94e79b0c0532bf4","658018eac7afa8708864d65f","1953","
            
        <div style=""text-align: center; position: fixed; top: 5vh; left: 40vw;"">
            <div style=""margin:0 auto; width: 20vw; top: 8vh; font-size: 2vw""> 
            <font color=""green""> Bonus : $1.86 </font>
            </div>
        </div>
    
            <p> Please press any key to continue to the next movie.</p>
            <p> Remember your choices : <p>
            <div class=""container"">
                <div class=""photos"">
                    <img class=""image"" src=./stimuli//pack_noise_shapes_3/cat_1/prototype_1.png>
                    <span class=""word""><b>Press left arrow key if the shape looks like this one.</b></span>
                </div>
                <div class=""photos"">
                    <img class=""image"" src=./stimuli//pack_noise_shapes_3/cat_2/prototype_2.png>
                    <div class=""word""><b>Press right arrow key if the shape looks like this one.</b></div>
                </div>
            </div>
        "," ","ITI","","","","","","","",""
"","","","","","html-keyboard-response","136","295008","0.0-7.33-1.33","607417a6a2b03d66922db6c1","65801700b94e79b0c0532bf4","658018eac7afa8708864d65f","2140","./stimuli//pack_noise_shapes_3/cat_2/diff_5/ex_2_5_7.mp4","arrowright","response","ArrowRight","7","2","5","test","true","",""
"","","","","","html-keyboard-response","137","296520","0.0-7.33-2.33","607417a6a2b03d66922db6c1","65801700b94e79b0c0532bf4","658018eac7afa8708864d65f","null","<p> <font color=""green"" size=""5vw""> Correct match! </font> <br> <br> <font color=""green"" size=""8vw""> + $0.12 </font> </p>","null","feedback","","","","","","","1.98","0.12"
"","","","","","html-keyboard-response","138","297362","0.0-7.34-0.34","607417a6a2b03d66922db6c1","65801700b94e79b0c0532bf4","658018eac7afa8708864d65f","841","
            
        <div style=""text-align: center; position: fixed; top: 5vh; left: 40vw;"">
            <div style=""margin:0 auto; width: 20vw; top: 8vh; font-size: 2vw""> 
            <font color=""green""> Bonus : $1.98 </font>
            </div>
        </div>
    
            <p> Please press any key to continue to the next movie.</p>
            <p> Remember your choices : <p>
            <div class=""container"">
                <div class=""photos"">
                    <img class=""image"" src=./stimuli//pack_noise_shapes_3/cat_1/prototype_1.png>
                    <span class=""word""><b>Press left arrow key if the shape looks like this one.</b></span>
                </div>
                <div class=""photos"">
                    <img class=""image"" src=./stimuli//pack_noise_shapes_3/cat_2/prototype_2.png>
                    <div class=""word""><b>Press right arrow key if the shape looks like this one.</b></div>
                </div>
            </div>
        "," ","ITI","","","","","","","",""
"","","","","","html-keyboard-response","139","299976","0.0-7.34-1.34","607417a6a2b03d66922db6c1","65801700b94e79b0c0532bf4","658018eac7afa8708864d65f","2611","./stimuli//pack_noise_shapes_3/cat_1/diff_5/ex_1_5_14.mp4","arrowleft","response","ArrowLeft","14","1","5","test","true","",""
"","","","","","html-keyboard-response","140","301488","0.0-7.34-2.34","607417a6a2b03d66922db6c1","65801700b94e79b0c0532bf4","658018eac7afa8708864d65f","null","<p> <font color=""green"" size=""5vw""> Correct match! </font> <br> <br> <font color=""green"" size=""8vw""> + $0.11 </font> </p>","null","feedback","","","","","","","2.09","0.11"
"","","","","","html-keyboard-response","141","302374","0.0-7.35-0.35","607417a6a2b03d66922db6c1","65801700b94e79b0c0532bf4","658018eac7afa8708864d65f","883","
            
        <div style=""text-align: center; position: fixed; top: 5vh; left: 40vw;"">
            <div style=""margin:0 auto; width: 20vw; top: 8vh; font-size: 2vw""> 
            <font color=""green""> Bonus : $2.09 </font>
            </div>
        </div>
    
            <p> Please press any key to continue to the next movie.</p>
            <p> Remember your choices : <p>
            <div class=""container"">
                <div class=""photos"">
                    <img class=""image"" src=./stimuli//pack_noise_shapes_3/cat_1/prototype_1.png>
                    <span class=""word""><b>Press left arrow key if the shape looks like this one.</b></span>
                </div>
                <div class=""photos"">
                    <img class=""image"" src=./stimuli//pack_noise_shapes_3/cat_2/prototype_2.png>
                    <div class=""word""><b>Press right arrow key if the shape looks like this one.</b></div>
                </div>
            </div>
        "," ","ITI","","","","","","","",""
"","","","","","html-keyboard-response","142","304890","0.0-7.35-1.35","607417a6a2b03d66922db6c1","65801700b94e79b0c0532bf4","658018eac7afa8708864d65f","2512","./stimuli//pack_noise_shapes_3/cat_1/diff_5/ex_1_5_6.mp4","arrowleft","response","ArrowLeft","6","1","5","test","true","",""
"","","","","","html-keyboard-response","143","306398","0.0-7.35-2.35","607417a6a2b03d66922db6c1","65801700b94e79b0c0532bf4","658018eac7afa8708864d65f","null","<p> <font color=""green"" size=""5vw""> Correct match! </font> <br> <br> <font color=""green"" size=""8vw""> + $0.11 </font> </p>","null","feedback","","","","","","","2.2","0.11"
"","","","","","html-keyboard-response","144","307162","0.0-7.36-0.36","607417a6a2b03d66922db6c1","65801700b94e79b0c0532bf4","658018eac7afa8708864d65f","763","
            
        <div style=""text-align: center; position: fixed; top: 5vh; left: 40vw;"">
            <div style=""margin:0 auto; width: 20vw; top: 8vh; font-size: 2vw""> 
            <font color=""green""> Bonus : $2.2 </font>
            </div>
        </div>
    
            <p> Please press any key to continue to the next movie.</p>
            <p> Remember your choices : <p>
            <div class=""container"">
                <div class=""photos"">
                    <img class=""image"" src=./stimuli//pack_noise_shapes_3/cat_1/prototype_1.png>
                    <span class=""word""><b>Press left arrow key if the shape looks like this one.</b></span>
                </div>
                <div class=""photos"">
                    <img class=""image"" src=./stimuli//pack_noise_shapes_3/cat_2/prototype_2.png>
                    <div class=""word""><b>Press right arrow key if the shape looks like this one.</b></div>
                </div>
            </div>
        "," ","ITI","","","","","","","",""
"","","","","","html-keyboard-response","145","309758","0.0-7.36-1.36","607417a6a2b03d66922db6c1","65801700b94e79b0c0532bf4","658018eac7afa8708864d65f","2593","./stimuli//pack_noise_shapes_3/cat_1/diff_5/ex_1_5_16.mp4","arrowleft","response","ArrowLeft","16","1","5","test","true","",""
"","","","","","html-keyboard-response","146","311268","0.0-7.36-2.36","607417a6a2b03d66922db6c1","65801700b94e79b0c0532bf4","658018eac7afa8708864d65f","null","<p> <font color=""green"" size=""5vw""> Correct match! </font> <br> <br> <font color=""green"" size=""8vw""> + $0.11 </font> </p>","null","feedback","","","","","","","2.31","0.11"
"","","","","","html-keyboard-response","147","312228","0.0-7.37-0.37","607417a6a2b03d66922db6c1","65801700b94e79b0c0532bf4","658018eac7afa8708864d65f","957","
            
        <div style=""text-align: center; position: fixed; top: 5vh; left: 40vw;"">
            <div style=""margin:0 auto; width: 20vw; top: 8vh; font-size: 2vw""> 
            <font color=""green""> Bonus : $2.31 </font>
            </div>
        </div>
    
            <p> Please press any key to continue to the next movie.</p>
            <p> Remember your choices : <p>
            <div class=""container"">
                <div class=""photos"">
                    <img class=""image"" src=./stimuli//pack_noise_shapes_3/cat_1/prototype_1.png>
                    <span class=""word""><b>Press left arrow key if the shape looks like this one.</b></span>
                </div>
                <div class=""photos"">
                    <img class=""image"" src=./stimuli//pack_noise_shapes_3/cat_2/prototype_2.png>
                    <div class=""word""><b>Press right arrow key if the shape looks like this one.</b></div>
                </div>
            </div>
        "," ","ITI","","","","","","","",""
"","","","","","html-keyboard-response","148","315342","0.0-7.37-1.37","607417a6a2b03d66922db6c1","65801700b94e79b0c0532bf4","658018eac7afa8708864d65f","3111","./stimuli//pack_noise_shapes_3/cat_1/diff_5/ex_1_5_8.mp4","arrowleft","response","ArrowLeft","8","1","5","test","true","",""
"","","","","","html-keyboard-response","149","316850","0.0-7.37-2.37","607417a6a2b03d66922db6c1","65801700b94e79b0c0532bf4","658018eac7afa8708864d65f","null","<p> <font color=""green"" size=""5vw""> Correct match! </font> <br> <br> <font color=""green"" size=""8vw""> + $0.1 </font> </p>","null","feedback","","","","","","","2.41","0.1"
"","","","","","html-keyboard-response","150","318583","0.0-7.38-0.38","607417a6a2b03d66922db6c1","65801700b94e79b0c0532bf4","658018eac7afa8708864d65f","1731","
            
        <div style=""text-align: center; position: fixed; top: 5vh; left: 40vw;"">
            <div style=""margin:0 auto; width: 20vw; top: 8vh; font-size: 2vw""> 
            <font color=""green""> Bonus : $2.41 </font>
            </div>
        </div>
    
            <p> Please press any key to continue to the next movie.</p>
            <p> Remember your choices : <p>
            <div class=""container"">
                <div class=""photos"">
                    <img class=""image"" src=./stimuli//pack_noise_shapes_3/cat_1/prototype_1.png>
                    <span class=""word""><b>Press left arrow key if the shape looks like this one.</b></span>
                </div>
                <div class=""photos"">
                    <img class=""image"" src=./stimuli//pack_noise_shapes_3/cat_2/prototype_2.png>
                    <div class=""word""><b>Press right arrow key if the shape looks like this one.</b></div>
                </div>
            </div>
        "," ","ITI","","","","","","","",""
"","","","","","html-keyboard-response","151","320874","0.0-7.38-1.38","607417a6a2b03d66922db6c1","65801700b94e79b0c0532bf4","658018eac7afa8708864d65f","2287","./stimuli//pack_noise_shapes_3/cat_2/diff_5/ex_2_5_1.mp4","arrowleft","response","ArrowRight","1","2","5","test","false","",""
"","","","","","html-keyboard-response","152","325881","0.0-7.38-2.38","607417a6a2b03d66922db6c1","65801700b94e79b0c0532bf4","658018eac7afa8708864d65f","null","<p> <font color=""red"" size=""5vw""> Wrong match! </font> <br> <br> <font color=""red"" size=""8vw""> - $0.1 </font> </p>","null","feedback","","","","","","","2.31","-0.1"
"","","","","","html-keyboard-response","153","326722","0.0-7.39-0.39","607417a6a2b03d66922db6c1","65801700b94e79b0c0532bf4","658018eac7afa8708864d65f","840","
            
        <div style=""text-align: center; position: fixed; top: 5vh; left: 40vw;"">
            <div style=""margin:0 auto; width: 20vw; top: 8vh; font-size: 2vw""> 
            <font color=""green""> Bonus : $2.31 </font>
            </div>
        </div>
    
            <p> Please press any key to continue to the next movie.</p>
            <p> Remember your choices : <p>
            <div class=""container"">
                <div class=""photos"">
                    <img class=""image"" src=./stimuli//pack_noise_shapes_3/cat_1/prototype_1.png>
                    <span class=""word""><b>Press left arrow key if the shape looks like this one.</b></span>
                </div>
                <div class=""photos"">
                    <img class=""image"" src=./stimuli//pack_noise_shapes_3/cat_2/prototype_2.png>
                    <div class=""word""><b>Press right arrow key if the shape looks like this one.</b></div>
                </div>
            </div>
        "," ","ITI","","","","","","","",""
"","","","","","html-keyboard-response","154","329474","0.0-7.39-1.39","607417a6a2b03d66922db6c1","65801700b94e79b0c0532bf4","658018eac7afa8708864d65f","2748","./stimuli//pack_noise_shapes_3/cat_1/diff_5/ex_1_5_4.mp4","arrowright","response","ArrowLeft","4","1","5","test","false","",""
"","","","","","html-keyboard-response","155","334488","0.0-7.39-2.39","607417a6a2b03d66922db6c1","65801700b94e79b0c0532bf4","658018eac7afa8708864d65f","null","<p> <font color=""red"" size=""5vw""> Wrong match! </font> <br> <br> <font color=""red"" size=""8vw""> - $0.1 </font> </p>","null","feedback","","","","","","","2.21","-0.1"
"","","","","","html-keyboard-response","156","336204","0.0-7.40-0.40","607417a6a2b03d66922db6c1","65801700b94e79b0c0532bf4","658018eac7afa8708864d65f","1715","
            
        <div style=""text-align: center; position: fixed; top: 5vh; left: 40vw;"">
            <div style=""margin:0 auto; width: 20vw; top: 8vh; font-size: 2vw""> 
            <font color=""green""> Bonus : $2.21 </font>
            </div>
        </div>
    
            <p> Please press any key to continue to the next movie.</p>
            <p> Remember your choices : <p>
            <div class=""container"">
                <div class=""photos"">
                    <img class=""image"" src=./stimuli//pack_noise_shapes_3/cat_1/prototype_1.png>
                    <span class=""word""><b>Press left arrow key if the shape looks like this one.</b></span>
                </div>
                <div class=""photos"">
                    <img class=""image"" src=./stimuli//pack_noise_shapes_3/cat_2/prototype_2.png>
                    <div class=""word""><b>Press right arrow key if the shape looks like this one.</b></div>
                </div>
            </div>
        "," ","ITI","","","","","","","",""
"","","","","","html-keyboard-response","157","339433","0.0-7.40-1.40","607417a6a2b03d66922db6c1","65801700b94e79b0c0532bf4","658018eac7afa8708864d65f","3225","./stimuli//pack_noise_shapes_3/cat_2/diff_4/ex_2_4_6.mp4","arrowleft","response","ArrowRight","6","2","4","test","false","",""
"","","","","","html-keyboard-response","158","344440","0.0-7.40-2.40","607417a6a2b03d66922db6c1","65801700b94e79b0c0532bf4","658018eac7afa8708864d65f","null","<p> <font color=""red"" size=""5vw""> Wrong match! </font> <br> <br> <font color=""red"" size=""8vw""> - $0.1 </font> </p>","null","feedback","","","","","","","2.11","-0.1"
"","","","","","html-keyboard-response","159","346399","0.0-7.41-0.41","607417a6a2b03d66922db6c1","65801700b94e79b0c0532bf4","658018eac7afa8708864d65f","1957","
            
        <div style=""text-align: center; position: fixed; top: 5vh; left: 40vw;"">
            <div style=""margin:0 auto; width: 20vw; top: 8vh; font-size: 2vw""> 
            <font color=""green""> Bonus : $2.11 </font>
            </div>
        </div>
    
            <p> Please press any key to continue to the next movie.</p>
            <p> Remember your choices : <p>
            <div class=""container"">
                <div class=""photos"">
                    <img class=""image"" src=./stimuli//pack_noise_shapes_3/cat_1/prototype_1.png>
                    <span class=""word""><b>Press left arrow key if the shape looks like this one.</b></span>
                </div>
                <div class=""photos"">
                    <img class=""image"" src=./stimuli//pack_noise_shapes_3/cat_2/prototype_2.png>
                    <div class=""word""><b>Press right arrow key if the shape looks like this one.</b></div>
                </div>
            </div>
        "," ","ITI","","","","","","","",""
"","","","","","html-keyboard-response","160","349128","0.0-7.41-1.41","607417a6a2b03d66922db6c1","65801700b94e79b0c0532bf4","658018eac7afa8708864d65f","2725","./stimuli//pack_noise_shapes_3/cat_2/diff_4/ex_2_4_10.mp4","arrowright","response","ArrowRight","10","2","4","test","true","",""
"","","","","","html-keyboard-response","161","350635","0.0-7.41-2.41","607417a6a2b03d66922db6c1","65801700b94e79b0c0532bf4","658018eac7afa8708864d65f","null","<p> <font color=""green"" size=""5vw""> Correct match! </font> <br> <br> <font color=""green"" size=""8vw""> + $0.11 </font> </p>","null","feedback","","","","","","","2.22","0.11"
"","","","","","html-keyboard-response","162","351922","0.0-7.42-0.42","607417a6a2b03d66922db6c1","65801700b94e79b0c0532bf4","658018eac7afa8708864d65f","1286","
            
        <div style=""text-align: center; position: fixed; top: 5vh; left: 40vw;"">
            <div style=""margin:0 auto; width: 20vw; top: 8vh; font-size: 2vw""> 
            <font color=""green""> Bonus : $2.22 </font>
            </div>
        </div>
    
            <p> Please press any key to continue to the next movie.</p>
            <p> Remember your choices : <p>
            <div class=""container"">
                <div class=""photos"">
                    <img class=""image"" src=./stimuli//pack_noise_shapes_3/cat_1/prototype_1.png>
                    <span class=""word""><b>Press left arrow key if the shape looks like this one.</b></span>
                </div>
                <div class=""photos"">
                    <img class=""image"" src=./stimuli//pack_noise_shapes_3/cat_2/prototype_2.png>
                    <div class=""word""><b>Press right arrow key if the shape looks like this one.</b></div>
                </div>
            </div>
        "," ","ITI","","","","","","","",""
"","","","","","html-keyboard-response","163","355351","0.0-7.42-1.42","607417a6a2b03d66922db6c1","65801700b94e79b0c0532bf4","658018eac7afa8708864d65f","3422","./stimuli//pack_noise_shapes_3/cat_1/diff_4/ex_1_4_10.mp4","arrowleft","response","ArrowLeft","10","1","4","test","true","",""
"","","","","","html-keyboard-response","164","356869","0.0-7.42-2.42","607417a6a2b03d66922db6c1","65801700b94e79b0c0532bf4","658018eac7afa8708864d65f","null","<p> <font color=""green"" size=""5vw""> Correct match! </font> <br> <br> <font color=""green"" size=""8vw""> + $0.1 </font> </p>","null","feedback","","","","","","","2.32","0.1"
"","","","","","html-keyboard-response","165","358805","0.0-7.43-0.43","607417a6a2b03d66922db6c1","65801700b94e79b0c0532bf4","658018eac7afa8708864d65f","1934","
            
        <div style=""text-align: center; position: fixed; top: 5vh; left: 40vw;"">
            <div style=""margin:0 auto; width: 20vw; top: 8vh; font-size: 2vw""> 
            <font color=""green""> Bonus : $2.32 </font>
            </div>
        </div>
    
            <p> Please press any key to continue to the next movie.</p>
            <p> Remember your choices : <p>
            <div class=""container"">
                <div class=""photos"">
                    <img class=""image"" src=./stimuli//pack_noise_shapes_3/cat_1/prototype_1.png>
                    <span class=""word""><b>Press left arrow key if the shape looks like this one.</b></span>
                </div>
