"success","timeout","failed_images","failed_audio","failed_video","trial_type","trial_index","time_elapsed","internal_node_id","subject_id","study_id","session_id","rt","stimulus","response","task","correct_response","exemplar_ID","category","difficulty","phase","correct","bonus","trial_bonus"
"true","false","[]","[]","[]","preload","0","1","0.0-0.0","65577242d6ad4e548cb8929e","65801700b94e79b0c0532bf4","65801a3b4a565b35c08c45a5","","","","","","","","","","","",""
"","","","","","html-keyboard-response","1","4259","0.0-1.0","65577242d6ad4e548cb8929e","65801700b94e79b0c0532bf4","65801a3b4a565b35c08c45a5","4257","Welcome to the Category Matching experiment! Press any key to continue.","h","welcome","","","","","","","",""
"","","","","","html-keyboard-response","2","4260","0.0-2.0","65577242d6ad4e548cb8929e","65801700b94e79b0c0532bf4","65801a3b4a565b35c08c45a5","1","
            <p>You will be shown movies. Each movie contains a shape that initially is hidden and is gradually revealed. 
            <p> While you watch a shape being revealed, you have to choose which shape from the two below it is most similar to : </p>
            <div class=""container"">
                <div class=""photos"">
                    <img class=""image"" src=./stimuli//pack_noise_shapes_3/cat_1/prototype_1.png>
                    <span class=""word""><b>Press left arrow key to choose this shape.</b></span>
                </div>
                <div class=""photos"">
                    <img class=""image"" src=./stimuli//pack_noise_shapes_3/cat_2/prototype_2.png >
                    <div class=""word""><b>Press right arrow key to choose this shape.</b></div>
                </div>
            </div>
            <br>
            <p>Press any key to continue.</p>
            ","j","introduction_1","","","","","","","",""
"","","","","","html-keyboard-response","3","12002","0.0-3.0","65577242d6ad4e548cb8929e","65801700b94e79b0c0532bf4","65801a3b4a565b35c08c45a5","7742","
            <p> After you choose, the screen will show you whether you were correct or not.</p>
            <p><b>You will receive a bonus payment for each correct answer! The faster you answer the higher the bonus will be!</b></p>
            <p> So you can increase your bonus by guessing as quickly and accurately as possible.</p>
            <p><b>You will lose $0.1 from your bonus payment for each incorrect answer! The bonus can not become less than $0.</b> </p>
            <p>Press any key to continue.</p>
    ","k","introduction_2","","","","","","","",""
"","","","","","html-keyboard-response","4","16340","0.0-4.0","65577242d6ad4e548cb8929e","65801700b94e79b0c0532bf4","65801a3b4a565b35c08c45a5","4336","
            <p> <b>The first 10 shapes are a practice round that will not count towards your bonus payment.</b></p>
            <p> You will be notified when practice finishes and the test begins. </p>
            <p> Press any key to begin the practice round.</p>
            ","k","introduction_3","","","","","","","",""
"","","","","","html-keyboard-response","5","27923","0.0-5.0-0.0","65577242d6ad4e548cb8929e","65801700b94e79b0c0532bf4","65801a3b4a565b35c08c45a5","11581","
            
        <div style=""text-align: center; position: fixed; top: 5vh; left: 40vw;"">
            <div style=""margin:0 auto; width: 20vw; top: 8vh; font-size: 2vw""> 
            <font color=""green""> Bonus : $0 </font>
            </div>
        </div>
    
            <p> Please press any key to continue to the next movie.</p>
            <p> Remember your choices : <p>
            <div class=""container"">
                <div class=""photos"">
                    <img class=""image"" src=./stimuli//pack_noise_shapes_3/cat_1/prototype_1.png>
                    <span class=""word""><b>Press left arrow key if the shape looks like this one.</b></span>
                </div>
                <div class=""photos"">
                    <img class=""image"" src=./stimuli//pack_noise_shapes_3/cat_2/prototype_2.png>
                    <div class=""word""><b>Press right arrow key if the shape looks like this one.</b></div>
                </div>
            </div>
        ","arrowright","ITI","","","","","","","",""
"","","","","","html-keyboard-response","6","30869","0.0-5.0-1.0","65577242d6ad4e548cb8929e","65801700b94e79b0c0532bf4","65801a3b4a565b35c08c45a5","2939","./stimuli//pack_noise_shapes_3/cat_1/diff_1/ex_1_1_17.mp4","arrowleft","response","ArrowLeft","17","1","1","train","true","",""
"","","","","","html-keyboard-response","7","32380","0.0-5.0-2.0","65577242d6ad4e548cb8929e","65801700b94e79b0c0532bf4","65801a3b4a565b35c08c45a5","null","<p> <font color=""green"" size=""5vw""> Correct category! </font> </p>","null","feedback","","","","","","","0","0"
"","","","","","html-keyboard-response","8","37316","0.0-5.0-0.1","65577242d6ad4e548cb8929e","65801700b94e79b0c0532bf4","65801a3b4a565b35c08c45a5","4933","
            
        <div style=""text-align: center; position: fixed; top: 5vh; left: 40vw;"">
            <div style=""margin:0 auto; width: 20vw; top: 8vh; font-size: 2vw""> 
            <font color=""green""> Bonus : $0 </font>
            </div>
        </div>
    
            <p> Please press any key to continue to the next movie.</p>
            <p> Remember your choices : <p>
            <div class=""container"">
                <div class=""photos"">
                    <img class=""image"" src=./stimuli//pack_noise_shapes_3/cat_1/prototype_1.png>
                    <span class=""word""><b>Press left arrow key if the shape looks like this one.</b></span>
                </div>
                <div class=""photos"">
                    <img class=""image"" src=./stimuli//pack_noise_shapes_3/cat_2/prototype_2.png>
                    <div class=""word""><b>Press right arrow key if the shape looks like this one.</b></div>
                </div>
            </div>
        ","arrowright","ITI","","","","","","","",""
"","","","","","html-keyboard-response","9","39269","0.0-5.0-1.1","65577242d6ad4e548cb8929e","65801700b94e79b0c0532bf4","65801a3b4a565b35c08c45a5","1948","./stimuli//pack_noise_shapes_3/cat_2/diff_1/ex_2_1_11.mp4","arrowright","response","ArrowRight","11","2","1","train","true","",""
"","","","","","html-keyboard-response","10","40776","0.0-5.0-2.1","65577242d6ad4e548cb8929e","65801700b94e79b0c0532bf4","65801a3b4a565b35c08c45a5","null","<p> <font color=""green"" size=""5vw""> Correct category! </font> </p>","null","feedback","","","","","","","0","0"
"","","","","","html-keyboard-response","11","41588","0.0-5.0-0.2","65577242d6ad4e548cb8929e","65801700b94e79b0c0532bf4","65801a3b4a565b35c08c45a5","811","
            
        <div style=""text-align: center; position: fixed; top: 5vh; left: 40vw;"">
            <div style=""margin:0 auto; width: 20vw; top: 8vh; font-size: 2vw""> 
            <font color=""green""> Bonus : $0 </font>
            </div>
        </div>
    
            <p> Please press any key to continue to the next movie.</p>
            <p> Remember your choices : <p>
            <div class=""container"">
                <div class=""photos"">
                    <img class=""image"" src=./stimuli//pack_noise_shapes_3/cat_1/prototype_1.png>
                    <span class=""word""><b>Press left arrow key if the shape looks like this one.</b></span>
                </div>
                <div class=""photos"">
                    <img class=""image"" src=./stimuli//pack_noise_shapes_3/cat_2/prototype_2.png>
                    <div class=""word""><b>Press right arrow key if the shape looks like this one.</b></div>
                </div>
            </div>
        ","arrowright","ITI","","","","","","","",""
"","","","","","html-keyboard-response","12","43652","0.0-5.0-1.2","65577242d6ad4e548cb8929e","65801700b94e79b0c0532bf4","65801a3b4a565b35c08c45a5","2061","./stimuli//pack_noise_shapes_3/cat_2/diff_1/ex_2_1_5.mp4","arrowright","response","ArrowRight","5","2","1","train","true","",""
"","","","","","html-keyboard-response","13","45168","0.0-5.0-2.2","65577242d6ad4e548cb8929e","65801700b94e79b0c0532bf4","65801a3b4a565b35c08c45a5","null","<p> <font color=""green"" size=""5vw""> Correct category! </font> </p>","null","feedback","","","","","","","0","0"
"","","","","","html-keyboard-response","14","45732","0.0-5.0-0.3","65577242d6ad4e548cb8929e","65801700b94e79b0c0532bf4","65801a3b4a565b35c08c45a5","562","
            
        <div style=""text-align: center; position: fixed; top: 5vh; left: 40vw;"">
            <div style=""margin:0 auto; width: 20vw; top: 8vh; font-size: 2vw""> 
            <font color=""green""> Bonus : $0 </font>
            </div>
        </div>
    
            <p> Please press any key to continue to the next movie.</p>
            <p> Remember your choices : <p>
            <div class=""container"">
                <div class=""photos"">
                    <img class=""image"" src=./stimuli//pack_noise_shapes_3/cat_1/prototype_1.png>
                    <span class=""word""><b>Press left arrow key if the shape looks like this one.</b></span>
                </div>
                <div class=""photos"">
                    <img class=""image"" src=./stimuli//pack_noise_shapes_3/cat_2/prototype_2.png>
                    <div class=""word""><b>Press right arrow key if the shape looks like this one.</b></div>
                </div>
            </div>
        ","arrowright","ITI","","","","","","","",""
"","","","","","html-keyboard-response","15","47955","0.0-5.0-1.3","65577242d6ad4e548cb8929e","65801700b94e79b0c0532bf4","65801a3b4a565b35c08c45a5","2220","./stimuli//pack_noise_shapes_3/cat_1/diff_2/ex_1_2_3.mp4","arrowleft","response","ArrowLeft","3","1","2","train","true","",""
"","","","","","html-keyboard-response","16","49457","0.0-5.0-2.3","65577242d6ad4e548cb8929e","65801700b94e79b0c0532bf4","65801a3b4a565b35c08c45a5","null","<p> <font color=""green"" size=""5vw""> Correct category! </font> </p>","null","feedback","","","","","","","0","0"
"","","","","","html-keyboard-response","17","50516","0.0-5.0-0.4","65577242d6ad4e548cb8929e","65801700b94e79b0c0532bf4","65801a3b4a565b35c08c45a5","1058","
            
        <div style=""text-align: center; position: fixed; top: 5vh; left: 40vw;"">
            <div style=""margin:0 auto; width: 20vw; top: 8vh; font-size: 2vw""> 
            <font color=""green""> Bonus : $0 </font>
            </div>
        </div>
    
            <p> Please press any key to continue to the next movie.</p>
            <p> Remember your choices : <p>
            <div class=""container"">
                <div class=""photos"">
                    <img class=""image"" src=./stimuli//pack_noise_shapes_3/cat_1/prototype_1.png>
                    <span class=""word""><b>Press left arrow key if the shape looks like this one.</b></span>
                </div>
                <div class=""photos"">
                    <img class=""image"" src=./stimuli//pack_noise_shapes_3/cat_2/prototype_2.png>
                    <div class=""word""><b>Press right arrow key if the shape looks like this one.</b></div>
                </div>
            </div>
        ","arrowleft","ITI","","","","","","","",""
"","","","","","html-keyboard-response","18","52644","0.0-5.0-1.4","65577242d6ad4e548cb8929e","65801700b94e79b0c0532bf4","65801a3b4a565b35c08c45a5","2125","./stimuli//pack_noise_shapes_3/cat_1/diff_2/ex_1_2_5.mp4","arrowleft","response","ArrowLeft","5","1","2","train","true","",""
"","","","","","html-keyboard-response","19","54161","0.0-5.0-2.4","65577242d6ad4e548cb8929e","65801700b94e79b0c0532bf4","65801a3b4a565b35c08c45a5","null","<p> <font color=""green"" size=""5vw""> Correct category! </font> </p>","null","feedback","","","","","","","0","0"
"","","","","","html-keyboard-response","20","54770","0.0-5.0-0.5","65577242d6ad4e548cb8929e","65801700b94e79b0c0532bf4","65801a3b4a565b35c08c45a5","607","
            
        <div style=""text-align: center; position: fixed; top: 5vh; left: 40vw;"">
            <div style=""margin:0 auto; width: 20vw; top: 8vh; font-size: 2vw""> 
            <font color=""green""> Bonus : $0 </font>
            </div>
        </div>
    
            <p> Please press any key to continue to the next movie.</p>
            <p> Remember your choices : <p>
            <div class=""container"">
                <div class=""photos"">
                    <img class=""image"" src=./stimuli//pack_noise_shapes_3/cat_1/prototype_1.png>
                    <span class=""word""><b>Press left arrow key if the shape looks like this one.</b></span>
                </div>
                <div class=""photos"">
                    <img class=""image"" src=./stimuli//pack_noise_shapes_3/cat_2/prototype_2.png>
                    <div class=""word""><b>Press right arrow key if the shape looks like this one.</b></div>
                </div>
            </div>
        ","arrowright","ITI","","","","","","","",""
"","","","","","html-keyboard-response","21","56613","0.0-5.0-1.5","65577242d6ad4e548cb8929e","65801700b94e79b0c0532bf4","65801a3b4a565b35c08c45a5","1841","./stimuli//pack_noise_shapes_3/cat_1/diff_1/ex_1_1_10.mp4","arrowleft","response","ArrowLeft","10","1","1","train","true","",""
"","","","","","html-keyboard-response","22","58129","0.0-5.0-2.5","65577242d6ad4e548cb8929e","65801700b94e79b0c0532bf4","65801a3b4a565b35c08c45a5","null","<p> <font color=""green"" size=""5vw""> Correct category! </font> </p>","null","feedback","","","","","","","0","0"
"","","","","","html-keyboard-response","23","58883","0.0-5.0-0.6","65577242d6ad4e548cb8929e","65801700b94e79b0c0532bf4","65801a3b4a565b35c08c45a5","752","
            
        <div style=""text-align: center; position: fixed; top: 5vh; left: 40vw;"">
            <div style=""margin:0 auto; width: 20vw; top: 8vh; font-size: 2vw""> 
            <font color=""green""> Bonus : $0 </font>
            </div>
        </div>
    
            <p> Please press any key to continue to the next movie.</p>
            <p> Remember your choices : <p>
            <div class=""container"">
                <div class=""photos"">
                    <img class=""image"" src=./stimuli//pack_noise_shapes_3/cat_1/prototype_1.png>
                    <span class=""word""><b>Press left arrow key if the shape looks like this one.</b></span>
                </div>
                <div class=""photos"">
                    <img class=""image"" src=./stimuli//pack_noise_shapes_3/cat_2/prototype_2.png>
                    <div class=""word""><b>Press right arrow key if the shape looks like this one.</b></div>
                </div>
            </div>
        ","arrowleft","ITI","","","","","","","",""
"","","","","","html-keyboard-response","24","61226","0.0-5.0-1.6","65577242d6ad4e548cb8929e","65801700b94e79b0c0532bf4","65801a3b4a565b35c08c45a5","2336","./stimuli//pack_noise_shapes_3/cat_2/diff_2/ex_2_2_13.mp4","arrowright","response","ArrowRight","13","2","2","train","true","",""
"","","","","","html-keyboard-response","25","62741","0.0-5.0-2.6","65577242d6ad4e548cb8929e","65801700b94e79b0c0532bf4","65801a3b4a565b35c08c45a5","null","<p> <font color=""green"" size=""5vw""> Correct category! </font> </p>","null","feedback","","","","","","","0","0"
"","","","","","html-keyboard-response","26","63033","0.0-5.0-0.7","65577242d6ad4e548cb8929e","65801700b94e79b0c0532bf4","65801a3b4a565b35c08c45a5","291","
            
        <div style=""text-align: center; position: fixed; top: 5vh; left: 40vw;"">
            <div style=""margin:0 auto; width: 20vw; top: 8vh; font-size: 2vw""> 
            <font color=""green""> Bonus : $0 </font>
            </div>
        </div>
    
            <p> Please press any key to continue to the next movie.</p>
            <p> Remember your choices : <p>
            <div class=""container"">
                <div class=""photos"">
                    <img class=""image"" src=./stimuli//pack_noise_shapes_3/cat_1/prototype_1.png>
                    <span class=""word""><b>Press left arrow key if the shape looks like this one.</b></span>
                </div>
                <div class=""photos"">
                    <img class=""image"" src=./stimuli//pack_noise_shapes_3/cat_2/prototype_2.png>
                    <div class=""word""><b>Press right arrow key if the shape looks like this one.</b></div>
                </div>
            </div>
        ","arrowright","ITI","","","","","","","",""
"","","","","","html-keyboard-response","27","65159","0.0-5.0-1.7","65577242d6ad4e548cb8929e","65801700b94e79b0c0532bf4","65801a3b4a565b35c08c45a5","2124","./stimuli//pack_noise_shapes_3/cat_2/diff_1/ex_2_1_14.mp4","arrowright","response","ArrowRight","14","2","1","train","true","",""
"","","","","","html-keyboard-response","28","66661","0.0-5.0-2.7","65577242d6ad4e548cb8929e","65801700b94e79b0c0532bf4","65801a3b4a565b35c08c45a5","null","<p> <font color=""green"" size=""5vw""> Correct category! </font> </p>","null","feedback","","","","","","","0","0"
"","","","","","html-keyboard-response","29","67065","0.0-5.0-0.8","65577242d6ad4e548cb8929e","65801700b94e79b0c0532bf4","65801a3b4a565b35c08c45a5","401","
            
        <div style=""text-align: center; position: fixed; top: 5vh; left: 40vw;"">
            <div style=""margin:0 auto; width: 20vw; top: 8vh; font-size: 2vw""> 
            <font color=""green""> Bonus : $0 </font>
            </div>
        </div>
    
            <p> Please press any key to continue to the next movie.</p>
            <p> Remember your choices : <p>
            <div class=""container"">
                <div class=""photos"">
                    <img class=""image"" src=./stimuli//pack_noise_shapes_3/cat_1/prototype_1.png>
                    <span class=""word""><b>Press left arrow key if the shape looks like this one.</b></span>
                </div>
                <div class=""photos"">
                    <img class=""image"" src=./stimuli//pack_noise_shapes_3/cat_2/prototype_2.png>
                    <div class=""word""><b>Press right arrow key if the shape looks like this one.</b></div>
                </div>
            </div>
        ","arrowright","ITI","","","","","","","",""
"","","","","","html-keyboard-response","30","69225","0.0-5.0-1.8","65577242d6ad4e548cb8929e","65801700b94e79b0c0532bf4","65801a3b4a565b35c08c45a5","2156","./stimuli//pack_noise_shapes_3/cat_1/diff_1/ex_1_1_16.mp4","arrowleft","response","ArrowLeft","16","1","1","train","true","",""
"","","","","","html-keyboard-response","31","70732","0.0-5.0-2.8","65577242d6ad4e548cb8929e","65801700b94e79b0c0532bf4","65801a3b4a565b35c08c45a5","null","<p> <font color=""green"" size=""5vw""> Correct category! </font> </p>","null","feedback","","","","","","","0","0"
"","","","","","html-keyboard-response","32","71337","0.0-5.0-0.9","65577242d6ad4e548cb8929e","65801700b94e79b0c0532bf4","65801a3b4a565b35c08c45a5","604","
            
        <div style=""text-align: center; position: fixed; top: 5vh; left: 40vw;"">
            <div style=""margin:0 auto; width: 20vw; top: 8vh; font-size: 2vw""> 
            <font color=""green""> Bonus : $0 </font>
            </div>
        </div>
    
            <p> Please press any key to continue to the next movie.</p>
            <p> Remember your choices : <p>
            <div class=""container"">
                <div class=""photos"">
                    <img class=""image"" src=./stimuli//pack_noise_shapes_3/cat_1/prototype_1.png>
                    <span class=""word""><b>Press left arrow key if the shape looks like this one.</b></span>
                </div>
                <div class=""photos"">
                    <img class=""image"" src=./stimuli//pack_noise_shapes_3/cat_2/prototype_2.png>
                    <div class=""word""><b>Press right arrow key if the shape looks like this one.</b></div>
                </div>
            </div>
        ","arrowleft","ITI","","","","","","","",""
"","","","","","html-keyboard-response","33","74025","0.0-5.0-1.9","65577242d6ad4e548cb8929e","65801700b94e79b0c0532bf4","65801a3b4a565b35c08c45a5","2685","./stimuli//pack_noise_shapes_3/cat_2/diff_2/ex_2_2_3.mp4","arrowright","response","ArrowRight","3","2","2","train","true","",""
"","","","","","html-keyboard-response","34","75536","0.0-5.0-2.9","65577242d6ad4e548cb8929e","65801700b94e79b0c0532bf4","65801a3b4a565b35c08c45a5","null","<p> <font color=""green"" size=""5vw""> Correct category! </font> </p>","null","feedback","","","","","","","0","0"
"","","","","","html-keyboard-response","35","80119","0.0-6.0","65577242d6ad4e548cb8929e","65801700b94e79b0c0532bf4","65801a3b4a565b35c08c45a5","4583","
            <b> <p> The practice round has finished.</p>
            <b> <p> For the rest of the experiment you will receive a bonus payment for each correct answer, which will be higher the faster you answer!</b></p>
            <b> <p> Also you will lose $0.1 from your bonus payment for each incorrect answer!</p>
            <p> Press any key to begin the test. </p>
            ","arrowright","intermission","","","","","","","",""
"","","","","","html-keyboard-response","36","81272","0.0-7.0-0.0","65577242d6ad4e548cb8929e","65801700b94e79b0c0532bf4","65801a3b4a565b35c08c45a5","1152","
            
        <div style=""text-align: center; position: fixed; top: 5vh; left: 40vw;"">
            <div style=""margin:0 auto; width: 20vw; top: 8vh; font-size: 2vw""> 
            <font color=""green""> Bonus : $0 </font>
            </div>
        </div>
    
            <p> Please press any key to continue to the next movie.</p>
            <p> Remember your choices : <p>
            <div class=""container"">
                <div class=""photos"">
                    <img class=""image"" src=./stimuli//pack_noise_shapes_3/cat_1/prototype_1.png>
                    <span class=""word""><b>Press left arrow key if the shape looks like this one.</b></span>
                </div>
                <div class=""photos"">
                    <img class=""image"" src=./stimuli//pack_noise_shapes_3/cat_2/prototype_2.png>
                    <div class=""word""><b>Press right arrow key if the shape looks like this one.</b></div>
                </div>
            </div>
        ","arrowright","ITI","","","","","","","",""
"","","","","","html-keyboard-response","37","83465","0.0-7.0-1.0","65577242d6ad4e548cb8929e","65801700b94e79b0c0532bf4","65801a3b4a565b35c08c45a5","2188","./stimuli//pack_noise_shapes_3/cat_1/diff_1/ex_1_1_4.mp4","arrowleft","response","ArrowLeft","4","1","1","test","true","",""
"","","","","","html-keyboard-response","38","84979","0.0-7.0-2.0","65577242d6ad4e548cb8929e","65801700b94e79b0c0532bf4","65801a3b4a565b35c08c45a5","null","<p> <font color=""green"" size=""5vw""> Correct match! </font> <br> <br> <font color=""green"" size=""8vw""> + $0.06 </font> </p>","null","feedback","","","","","","","0.06","0.06"
"","","","","","html-keyboard-response","39","85640","0.0-7.1-0.1","65577242d6ad4e548cb8929e","65801700b94e79b0c0532bf4","65801a3b4a565b35c08c45a5","660","
            
        <div style=""text-align: center; position: fixed; top: 5vh; left: 40vw;"">
            <div style=""margin:0 auto; width: 20vw; top: 8vh; font-size: 2vw""> 
            <font color=""green""> Bonus : $0.06 </font>
            </div>
        </div>
    
            <p> Please press any key to continue to the next movie.</p>
            <p> Remember your choices : <p>
            <div class=""container"">
                <div class=""photos"">
                    <img class=""image"" src=./stimuli//pack_noise_shapes_3/cat_1/prototype_1.png>
                    <span class=""word""><b>Press left arrow key if the shape looks like this one.</b></span>
                </div>
                <div class=""photos"">
                    <img class=""image"" src=./stimuli//pack_noise_shapes_3/cat_2/prototype_2.png>
                    <div class=""word""><b>Press right arrow key if the shape looks like this one.</b></div>
                </div>
            </div>
        ","arrowright","ITI","","","","","","","",""
"","","","","","html-keyboard-response","40","87431","0.0-7.1-1.1","65577242d6ad4e548cb8929e","65801700b94e79b0c0532bf4","65801a3b4a565b35c08c45a5","1788","./stimuli//pack_noise_shapes_3/cat_1/diff_1/ex_1_1_11.mp4","arrowleft","response","ArrowLeft","11","1","1","test","true","",""
"","","","","","html-keyboard-response","41","88934","0.0-7.1-2.1","65577242d6ad4e548cb8929e","65801700b94e79b0c0532bf4","65801a3b4a565b35c08c45a5","null","<p> <font color=""green"" size=""5vw""> Correct match! </font> <br> <br> <font color=""green"" size=""8vw""> + $0.07 </font> </p>","null","feedback","","","","","","","0.13","0.07"
"","","","","","html-keyboard-response","42","89031","0.0-7.2-0.2","65577242d6ad4e548cb8929e","65801700b94e79b0c0532bf4","65801a3b4a565b35c08c45a5","95","
            
        <div style=""text-align: center; position: fixed; top: 5vh; left: 40vw;"">
            <div style=""margin:0 auto; width: 20vw; top: 8vh; font-size: 2vw""> 
            <font color=""green""> Bonus : $0.13 </font>
            </div>
        </div>
    
            <p> Please press any key to continue to the next movie.</p>
            <p> Remember your choices : <p>
            <div class=""container"">
                <div class=""photos"">
                    <img class=""image"" src=./stimuli//pack_noise_shapes_3/cat_1/prototype_1.png>
                    <span class=""word""><b>Press left arrow key if the shape looks like this one.</b></span>
                </div>
                <div class=""photos"">
                    <img class=""image"" src=./stimuli//pack_noise_shapes_3/cat_2/prototype_2.png>
                    <div class=""word""><b>Press right arrow key if the shape looks like this one.</b></div>
                </div>
            </div>
        ","arrowleft","ITI","","","","","","","",""
"","","","","","html-keyboard-response","43","90905","0.0-7.2-1.2","65577242d6ad4e548cb8929e","65801700b94e79b0c0532bf4","65801a3b4a565b35c08c45a5","1872","./stimuli//pack_noise_shapes_3/cat_2/diff_1/ex_2_1_3.mp4","arrowright","response","ArrowRight","3","2","1","test","true","",""
"","","","","","html-keyboard-response","44","92419","0.0-7.2-2.2","65577242d6ad4e548cb8929e","65801700b94e79b0c0532bf4","65801a3b4a565b35c08c45a5","null","<p> <font color=""green"" size=""5vw""> Correct match! </font> <br> <br> <font color=""green"" size=""8vw""> + $0.07 </font> </p>","null","feedback","","","","","","","0.2","0.07"
"","","","","","html-keyboard-response","45","92776","0.0-7.3-0.3","65577242d6ad4e548cb8929e","65801700b94e79b0c0532bf4","65801a3b4a565b35c08c45a5","355","
            
        <div style=""text-align: center; position: fixed; top: 5vh; left: 40vw;"">
            <div style=""margin:0 auto; width: 20vw; top: 8vh; font-size: 2vw""> 
            <font color=""green""> Bonus : $0.2 </font>
            </div>
        </div>
    
            <p> Please press any key to continue to the next movie.</p>
            <p> Remember your choices : <p>
            <div class=""container"">
                <div class=""photos"">
                    <img class=""image"" src=./stimuli//pack_noise_shapes_3/cat_1/prototype_1.png>
                    <span class=""word""><b>Press left arrow key if the shape looks like this one.</b></span>
                </div>
                <div class=""photos"">
                    <img class=""image"" src=./stimuli//pack_noise_shapes_3/cat_2/prototype_2.png>
                    <div class=""word""><b>Press right arrow key if the shape looks like this one.</b></div>
                </div>
            </div>
        ","arrowright","ITI","","","","","","","",""
"","","","","","html-keyboard-response","46","94583","0.0-7.3-1.3","65577242d6ad4e548cb8929e","65801700b94e79b0c0532bf4","65801a3b4a565b35c08c45a5","1800","./stimuli//pack_noise_shapes_3/cat_1/diff_1/ex_1_1_3.mp4","arrowleft","response","ArrowLeft","3","1","1","test","true","",""
"","","","","","html-keyboard-response","47","96089","0.0-7.3-2.3","65577242d6ad4e548cb8929e","65801700b94e79b0c0532bf4","65801a3b4a565b35c08c45a5","null","<p> <font color=""green"" size=""5vw""> Correct match! </font> <br> <br> <font color=""green"" size=""8vw""> + $0.07 </font> </p>","null","feedback","","","","","","","0.27","0.07"
"","","","","","html-keyboard-response","48","96328","0.0-7.4-0.4","65577242d6ad4e548cb8929e","65801700b94e79b0c0532bf4","65801a3b4a565b35c08c45a5","238","
            
        <div style=""text-align: center; position: fixed; top: 5vh; left: 40vw;"">
            <div style=""margin:0 auto; width: 20vw; top: 8vh; font-size: 2vw""> 
            <font color=""green""> Bonus : $0.27 </font>
            </div>
        </div>
    
            <p> Please press any key to continue to the next movie.</p>
            <p> Remember your choices : <p>
            <div class=""container"">
                <div class=""photos"">
                    <img class=""image"" src=./stimuli//pack_noise_shapes_3/cat_1/prototype_1.png>
                    <span class=""word""><b>Press left arrow key if the shape looks like this one.</b></span>
                </div>
                <div class=""photos"">
                    <img class=""image"" src=./stimuli//pack_noise_shapes_3/cat_2/prototype_2.png>
                    <div class=""word""><b>Press right arrow key if the shape looks like this one.</b></div>
                </div>
            </div>
        ","arrowright","ITI","","","","","","","",""
"","","","","","html-keyboard-response","49","98199","0.0-7.4-1.4","65577242d6ad4e548cb8929e","65801700b94e79b0c0532bf4","65801a3b4a565b35c08c45a5","1870","./stimuli//pack_noise_shapes_3/cat_1/diff_1/ex_1_1_7.mp4","arrowleft","response","ArrowLeft","7","1","1","test","true","",""
"","","","","","html-keyboard-response","50","99710","0.0-7.4-2.4","65577242d6ad4e548cb8929e","65801700b94e79b0c0532bf4","65801a3b4a565b35c08c45a5","null","<p> <font color=""green"" size=""5vw""> Correct match! </font> <br> <br> <font color=""green"" size=""8vw""> + $0.07 </font> </p>","null","feedback","","","","","","","0.34","0.07"
"","","","","","html-keyboard-response","51","100280","0.0-7.5-0.5","65577242d6ad4e548cb8929e","65801700b94e79b0c0532bf4","65801a3b4a565b35c08c45a5","568","
            
        <div style=""text-align: center; position: fixed; top: 5vh; left: 40vw;"">
            <div style=""margin:0 auto; width: 20vw; top: 8vh; font-size: 2vw""> 
            <font color=""green""> Bonus : $0.34 </font>
            </div>
        </div>
    
            <p> Please press any key to continue to the next movie.</p>
            <p> Remember your choices : <p>
            <div class=""container"">
                <div class=""photos"">
                    <img class=""image"" src=./stimuli//pack_noise_shapes_3/cat_1/prototype_1.png>
                    <span class=""word""><b>Press left arrow key if the shape looks like this one.</b></span>
                </div>
                <div class=""photos"">
                    <img class=""image"" src=./stimuli//pack_noise_shapes_3/cat_2/prototype_2.png>
                    <div class=""word""><b>Press right arrow key if the shape looks like this one.</b></div>
                </div>
            </div>
        ","arrowright","ITI","","","","","","","",""
"","","","","","html-keyboard-response","52","102041","0.0-7.5-1.5","65577242d6ad4e548cb8929e","65801700b94e79b0c0532bf4","65801a3b4a565b35c08c45a5","1758","./stimuli//pack_noise_shapes_3/cat_1/diff_2/ex_1_2_15.mp4","arrowleft","response","ArrowLeft","15","1","2","test","true","",""
"","","","","","html-keyboard-response","53","103548","0.0-7.5-2.5","65577242d6ad4e548cb8929e","65801700b94e79b0c0532bf4","65801a3b4a565b35c08c45a5","null","<p> <font color=""green"" size=""5vw""> Correct match! </font> <br> <br> <font color=""green"" size=""8vw""> + $0.07 </font> </p>","null","feedback","","","","","","","0.41","0.07"
"","","","","","html-keyboard-response","54","104167","0.0-7.6-0.6","65577242d6ad4e548cb8929e","65801700b94e79b0c0532bf4","65801a3b4a565b35c08c45a5","617","
            
        <div style=""text-align: center; position: fixed; top: 5vh; left: 40vw;"">
            <div style=""margin:0 auto; width: 20vw; top: 8vh; font-size: 2vw""> 
            <font color=""green""> Bonus : $0.41 </font>
            </div>
        </div>
    
            <p> Please press any key to continue to the next movie.</p>
            <p> Remember your choices : <p>
            <div class=""container"">
                <div class=""photos"">
                    <img class=""image"" src=./stimuli//pack_noise_shapes_3/cat_1/prototype_1.png>
                    <span class=""word""><b>Press left arrow key if the shape looks like this one.</b></span>
                </div>
                <div class=""photos"">
                    <img class=""image"" src=./stimuli//pack_noise_shapes_3/cat_2/prototype_2.png>
                    <div class=""word""><b>Press right arrow key if the shape looks like this one.</b></div>
                </div>
            </div>
        ","arrowleft","ITI","","","","","","","",""
"","","","","","html-keyboard-response","55","106297","0.0-7.6-1.6","65577242d6ad4e548cb8929e","65801700b94e79b0c0532bf4","65801a3b4a565b35c08c45a5","2128","./stimuli//pack_noise_shapes_3/cat_1/diff_2/ex_1_2_1.mp4","arrowleft","response","ArrowLeft","1","1","2","test","true","",""
"","","","","","html-keyboard-response","56","107802","0.0-7.6-2.6","65577242d6ad4e548cb8929e","65801700b94e79b0c0532bf4","65801a3b4a565b35c08c45a5","null","<p> <font color=""green"" size=""5vw""> Correct match! </font> <br> <br> <font color=""green"" size=""8vw""> + $0.07 </font> </p>","null","feedback","","","","","","","0.48","0.07"
"","","","","","html-keyboard-response","57","108072","0.0-7.7-0.7","65577242d6ad4e548cb8929e","65801700b94e79b0c0532bf4","65801a3b4a565b35c08c45a5","269","
            
        <div style=""text-align: center; position: fixed; top: 5vh; left: 40vw;"">
            <div style=""margin:0 auto; width: 20vw; top: 8vh; font-size: 2vw""> 
            <font color=""green""> Bonus : $0.48 </font>
            </div>
        </div>
    
            <p> Please press any key to continue to the next movie.</p>
            <p> Remember your choices : <p>
            <div class=""container"">
                <div class=""photos"">
                    <img class=""image"" src=./stimuli//pack_noise_shapes_3/cat_1/prototype_1.png>
                    <span class=""word""><b>Press left arrow key if the shape looks like this one.</b></span>
                </div>
                <div class=""photos"">
                    <img class=""image"" src=./stimuli//pack_noise_shapes_3/cat_2/prototype_2.png>
                    <div class=""word""><b>Press right arrow key if the shape looks like this one.</b></div>
                </div>
            </div>
        ","arrowleft","ITI","","","","","","","",""
"","","","","","html-keyboard-response","58","109977","0.0-7.7-1.7","65577242d6ad4e548cb8929e","65801700b94e79b0c0532bf4","65801a3b4a565b35c08c45a5","1901","./stimuli//pack_noise_shapes_3/cat_2/diff_2/ex_2_2_6.mp4","arrowright","response","ArrowRight","6","2","2","test","true","",""
"","","","","","html-keyboard-response","59","111488","0.0-7.7-2.7","65577242d6ad4e548cb8929e","65801700b94e79b0c0532bf4","65801a3b4a565b35c08c45a5","null","<p> <font color=""green"" size=""5vw""> Correct match! </font> <br> <br> <font color=""green"" size=""8vw""> + $0.07 </font> </p>","null","feedback","","","","","","","0.55","0.07"
"","","","","","html-keyboard-response","60","111864","0.0-7.8-0.8","65577242d6ad4e548cb8929e","65801700b94e79b0c0532bf4","65801a3b4a565b35c08c45a5","375","
            
        <div style=""text-align: center; position: fixed; top: 5vh; left: 40vw;"">
            <div style=""margin:0 auto; width: 20vw; top: 8vh; font-size: 2vw""> 
            <font color=""green""> Bonus : $0.55 </font>
            </div>
        </div>
    
            <p> Please press any key to continue to the next movie.</p>
            <p> Remember your choices : <p>
            <div class=""container"">
                <div class=""photos"">
                    <img class=""image"" src=./stimuli//pack_noise_shapes_3/cat_1/prototype_1.png>
                    <span class=""word""><b>Press left arrow key if the shape looks like this one.</b></span>
                </div>
                <div class=""photos"">
                    <img class=""image"" src=./stimuli//pack_noise_shapes_3/cat_2/prototype_2.png>
                    <div class=""word""><b>Press right arrow key if the shape looks like this one.</b></div>
                </div>
            </div>
        ","arrowright","ITI","","","","","","","",""
"","","","","","html-keyboard-response","61","114007","0.0-7.8-1.8","65577242d6ad4e548cb8929e","65801700b94e79b0c0532bf4","65801a3b4a565b35c08c45a5","2140","./stimuli//pack_noise_shapes_3/cat_2/diff_2/ex_2_2_8.mp4","arrowright","response","ArrowRight","8","2","2","test","true","",""
"","","","","","html-keyboard-response","62","115510","0.0-7.8-2.8","65577242d6ad4e548cb8929e","65801700b94e79b0c0532bf4","65801a3b4a565b35c08c45a5","null","<p> <font color=""green"" size=""5vw""> Correct match! </font> <br> <br> <font color=""green"" size=""8vw""> + $0.07 </font> </p>","null","feedback","","","","","","","0.62","0.07"
"","","","","","html-keyboard-response","63","116039","0.0-7.9-0.9","65577242d6ad4e548cb8929e","65801700b94e79b0c0532bf4","65801a3b4a565b35c08c45a5","528","
            
        <div style=""text-align: center; position: fixed; top: 5vh; left: 40vw;"">
            <div style=""margin:0 auto; width: 20vw; top: 8vh; font-size: 2vw""> 
            <font color=""green""> Bonus : $0.62 </font>
            </div>
        </div>
    
            <p> Please press any key to continue to the next movie.</p>
            <p> Remember your choices : <p>
            <div class=""container"">
                <div class=""photos"">
                    <img class=""image"" src=./stimuli//pack_noise_shapes_3/cat_1/prototype_1.png>
                    <span class=""word""><b>Press left arrow key if the shape looks like this one.</b></span>
                </div>
                <div class=""photos"">
                    <img class=""image"" src=./stimuli//pack_noise_shapes_3/cat_2/prototype_2.png>
                    <div class=""word""><b>Press right arrow key if the shape looks like this one.</b></div>
                </div>
            </div>
        ","arrowright","ITI","","","","","","","",""
"","","","","","html-keyboard-response","64","118344","0.0-7.9-1.9","65577242d6ad4e548cb8929e","65801700b94e79b0c0532bf4","65801a3b4a565b35c08c45a5","2303","./stimuli//pack_noise_shapes_3/cat_2/diff_2/ex_2_2_11.mp4","arrowright","response","ArrowRight","11","2","2","test","true","",""
"","","","","","html-keyboard-response","65","119851","0.0-7.9-2.9","65577242d6ad4e548cb8929e","65801700b94e79b0c0532bf4","65801a3b4a565b35c08c45a5","null","<p> <font color=""green"" size=""5vw""> Correct match! </font> <br> <br> <font color=""green"" size=""8vw""> + $0.06 </font> </p>","null","feedback","","","","","","","0.68","0.06"
"","","","","","html-keyboard-response","66","120441","0.0-7.10-0.10","65577242d6ad4e548cb8929e","65801700b94e79b0c0532bf4","65801a3b4a565b35c08c45a5","589","
            
        <div style=""text-align: center; position: fixed; top: 5vh; left: 40vw;"">
            <div style=""margin:0 auto; width: 20vw; top: 8vh; font-size: 2vw""> 
            <font color=""green""> Bonus : $0.68 </font>
            </div>
        </div>
    
            <p> Please press any key to continue to the next movie.</p>
            <p> Remember your choices : <p>
            <div class=""container"">
                <div class=""photos"">
                    <img class=""image"" src=./stimuli//pack_noise_shapes_3/cat_1/prototype_1.png>
                    <span class=""word""><b>Press left arrow key if the shape looks like this one.</b></span>
                </div>
                <div class=""photos"">
                    <img class=""image"" src=./stimuli//pack_noise_shapes_3/cat_2/prototype_2.png>
                    <div class=""word""><b>Press right arrow key if the shape looks like this one.</b></div>
                </div>
            </div>
        ","arrowright","ITI","","","","","","","",""
"","","","","","html-keyboard-response","67","122362","0.0-7.10-1.10","65577242d6ad4e548cb8929e","65801700b94e79b0c0532bf4","65801a3b4a565b35c08c45a5","1919","./stimuli//pack_noise_shapes_3/cat_1/diff_3/ex_1_3_4.mp4","arrowleft","response","ArrowLeft","4","1","3","test","true","",""
"","","","","","html-keyboard-response","68","123870","0.0-7.10-2.10","65577242d6ad4e548cb8929e","65801700b94e79b0c0532bf4","65801a3b4a565b35c08c45a5","null","<p> <font color=""green"" size=""5vw""> Correct match! </font> <br> <br> <font color=""green"" size=""8vw""> + $0.07 </font> </p>","null","feedback","","","","","","","0.75","0.07"
"","","","","","html-keyboard-response","69","124233","0.0-7.11-0.11","65577242d6ad4e548cb8929e","65801700b94e79b0c0532bf4","65801a3b4a565b35c08c45a5","361","
            
        <div style=""text-align: center; position: fixed; top: 5vh; left: 40vw;"">
            <div style=""margin:0 auto; width: 20vw; top: 8vh; font-size: 2vw""> 
            <font color=""green""> Bonus : $0.75 </font>
            </div>
        </div>
    
            <p> Please press any key to continue to the next movie.</p>
            <p> Remember your choices : <p>
            <div class=""container"">
                <div class=""photos"">
                    <img class=""image"" src=./stimuli//pack_noise_shapes_3/cat_1/prototype_1.png>
                    <span class=""word""><b>Press left arrow key if the shape looks like this one.</b></span>
                </div>
                <div class=""photos"">
                    <img class=""image"" src=./stimuli//pack_noise_shapes_3/cat_2/prototype_2.png>
                    <div class=""word""><b>Press right arrow key if the shape looks like this one.</b></div>
                </div>
            </div>
        ","arrowleft","ITI","","","","","","","",""
"","","","","","html-keyboard-response","70","126106","0.0-7.11-1.11","65577242d6ad4e548cb8929e","65801700b94e79b0c0532bf4","65801a3b4a565b35c08c45a5","1869","./stimuli//pack_noise_shapes_3/cat_1/diff_3/ex_1_3_17.mp4","arrowleft","response","ArrowLeft","17","1","3","test","true","",""
"","","","","","html-keyboard-response","71","127622","0.0-7.11-2.11","65577242d6ad4e548cb8929e","65801700b94e79b0c0532bf4","65801a3b4a565b35c08c45a5","null","<p> <font color=""green"" size=""5vw""> Correct match! </font> <br> <br> <font color=""green"" size=""8vw""> + $0.07 </font> </p>","null","feedback","","","","","","","0.82","0.07"
"","","","","","html-keyboard-response","72","127624","0.0-7.12-0.12","65577242d6ad4e548cb8929e","65801700b94e79b0c0532bf4","65801a3b4a565b35c08c45a5","1","
            
        <div style=""text-align: center; position: fixed; top: 5vh; left: 40vw;"">
            <div style=""margin:0 auto; width: 20vw; top: 8vh; font-size: 2vw""> 
            <font color=""green""> Bonus : $0.82 </font>
            </div>
        </div>
    
            <p> Please press any key to continue to the next movie.</p>
            <p> Remember your choices : <p>
            <div class=""container"">
                <div class=""photos"">
                    <img class=""image"" src=./stimuli//pack_noise_shapes_3/cat_1/prototype_1.png>
                    <span class=""word""><b>Press left arrow key if the shape looks like this one.</b></span>
                </div>
                <div class=""photos"">
                    <img class=""image"" src=./stimuli//pack_noise_shapes_3/cat_2/prototype_2.png>
                    <div class=""word""><b>Press right arrow key if the shape looks like this one.</b></div>
                </div>
            </div>
        ","arrowleft","ITI","","","","","","","",""
"","","","","","html-keyboard-response","73","129322","0.0-7.12-1.12","65577242d6ad4e548cb8929e","65801700b94e79b0c0532bf4","65801a3b4a565b35c08c45a5","1696","./stimuli//pack_noise_shapes_3/cat_1/diff_3/ex_1_3_17.mp4","arrowleft","response","ArrowLeft","17","1","3","test","true","",""
"","","","","","html-keyboard-response","74","130825","0.0-7.12-2.12","65577242d6ad4e548cb8929e","65801700b94e79b0c0532bf4","65801a3b4a565b35c08c45a5","null","<p> <font color=""green"" size=""5vw""> Correct match! </font> <br> <br> <font color=""green"" size=""8vw""> + $0.07 </font> </p>","null","feedback","","","","","","","0.89","0.07"
"","","","","","html-keyboard-response","75","131353","0.0-7.13-0.13","65577242d6ad4e548cb8929e","65801700b94e79b0c0532bf4","65801a3b4a565b35c08c45a5","527","
            
        <div style=""text-align: center; position: fixed; top: 5vh; left: 40vw;"">
            <div style=""margin:0 auto; width: 20vw; top: 8vh; font-size: 2vw""> 
            <font color=""green""> Bonus : $0.89 </font>
            </div>
        </div>
    
            <p> Please press any key to continue to the next movie.</p>
            <p> Remember your choices : <p>
            <div class=""container"">
                <div class=""photos"">
                    <img class=""image"" src=./stimuli//pack_noise_shapes_3/cat_1/prototype_1.png>
                    <span class=""word""><b>Press left arrow key if the shape looks like this one.</b></span>
                </div>
                <div class=""photos"">
                    <img class=""image"" src=./stimuli//pack_noise_shapes_3/cat_2/prototype_2.png>
                    <div class=""word""><b>Press right arrow key if the shape looks like this one.</b></div>
                </div>
            </div>
        ","arrowleft","ITI","","","","","","","",""
"","","","","","html-keyboard-response","76","133834","0.0-7.13-1.13","65577242d6ad4e548cb8929e","65801700b94e79b0c0532bf4","65801a3b4a565b35c08c45a5","2478","./stimuli//pack_noise_shapes_3/cat_2/diff_3/ex_2_3_4.mp4","arrowright","response","ArrowRight","4","2","3","test","true","",""
"","","","","","html-keyboard-response","77","135346","0.0-7.13-2.13","65577242d6ad4e548cb8929e","65801700b94e79b0c0532bf4","65801a3b4a565b35c08c45a5","null","<p> <font color=""green"" size=""5vw""> Correct match! </font> <br> <br> <font color=""green"" size=""8vw""> + $0.06 </font> </p>","null","feedback","","","","","","","0.95","0.06"
"","","","","","html-keyboard-response","78","135737","0.0-7.14-0.14","65577242d6ad4e548cb8929e","65801700b94e79b0c0532bf4","65801a3b4a565b35c08c45a5","388","
            
        <div style=""text-align: center; position: fixed; top: 5vh; left: 40vw;"">
            <div style=""margin:0 auto; width: 20vw; top: 8vh; font-size: 2vw""> 
            <font color=""green""> Bonus : $0.95 </font>
            </div>
        </div>
    
            <p> Please press any key to continue to the next movie.</p>
            <p> Remember your choices : <p>
            <div class=""container"">
                <div class=""photos"">
                    <img class=""image"" src=./stimuli//pack_noise_shapes_3/cat_1/prototype_1.png>
                    <span class=""word""><b>Press left arrow key if the shape looks like this one.</b></span>
                </div>
                <div class=""photos"">
                    <img class=""image"" src=./stimuli//pack_noise_shapes_3/cat_2/prototype_2.png>
                    <div class=""word""><b>Press right arrow key if the shape looks like this one.</b></div>
                </div>
            </div>
        ","arrowright","ITI","","","","","","","",""
"","","","","","html-keyboard-response","79","137466","0.0-7.14-1.14","65577242d6ad4e548cb8929e","65801700b94e79b0c0532bf4","65801a3b4a565b35c08c45a5","1728","./stimuli//pack_noise_shapes_3/cat_2/diff_3/ex_2_3_12.mp4","arrowright","response","ArrowRight","12","2","3","test","true","",""
"","","","","","html-keyboard-response","80","138968","0.0-7.14-2.14","65577242d6ad4e548cb8929e","65801700b94e79b0c0532bf4","65801a3b4a565b35c08c45a5","null","<p> <font color=""green"" size=""5vw""> Correct match! </font> <br> <br> <font color=""green"" size=""8vw""> + $0.07 </font> </p>","null","feedback","","","","","","","1.02","0.07"
"","","","","","html-keyboard-response","81","139418","0.0-7.15-0.15","65577242d6ad4e548cb8929e","65801700b94e79b0c0532bf4","65801a3b4a565b35c08c45a5","448","
            
        <div style=""text-align: center; position: fixed; top: 5vh; left: 40vw;"">
            <div style=""margin:0 auto; width: 20vw; top: 8vh; font-size: 2vw""> 
            <font color=""green""> Bonus : $1.02 </font>
            </div>
        </div>
    
            <p> Please press any key to continue to the next movie.</p>
            <p> Remember your choices : <p>
            <div class=""container"">
                <div class=""photos"">
                    <img class=""image"" src=./stimuli//pack_noise_shapes_3/cat_1/prototype_1.png>
                    <span class=""word""><b>Press left arrow key if the shape looks like this one.</b></span>
                </div>
                <div class=""photos"">
                    <img class=""image"" src=./stimuli//pack_noise_shapes_3/cat_2/prototype_2.png>
                    <div class=""word""><b>Press right arrow key if the shape looks like this one.</b></div>
                </div>
            </div>
        ","arrowright","ITI","","","","","","","",""
"","","","","","html-keyboard-response","82","141290","0.0-7.15-1.15","65577242d6ad4e548cb8929e","65801700b94e79b0c0532bf4","65801a3b4a565b35c08c45a5","1868","./stimuli//pack_noise_shapes_3/cat_2/diff_4/ex_2_4_1.mp4","arrowleft","response","ArrowRight","1","2","4","test","false","",""
"","","","","","html-keyboard-response","83","146303","0.0-7.15-2.15","65577242d6ad4e548cb8929e","65801700b94e79b0c0532bf4","65801a3b4a565b35c08c45a5","null","<p> <font color=""red"" size=""5vw""> Wrong match! </font> <br> <br> <font color=""red"" size=""8vw""> - $0.1 </font> </p>","null","feedback","","","","","","","0.92","-0.1"
"","","","","","html-keyboard-response","84","147001","0.0-7.16-0.16","65577242d6ad4e548cb8929e","65801700b94e79b0c0532bf4","65801a3b4a565b35c08c45a5","696","
            
        <div style=""text-align: center; position: fixed; top: 5vh; left: 40vw;"">
            <div style=""margin:0 auto; width: 20vw; top: 8vh; font-size: 2vw""> 
            <font color=""green""> Bonus : $0.92 </font>
            </div>
        </div>
    
            <p> Please press any key to continue to the next movie.</p>
            <p> Remember your choices : <p>
            <div class=""container"">
                <div class=""photos"">
                    <img class=""image"" src=./stimuli//pack_noise_shapes_3/cat_1/prototype_1.png>
                    <span class=""word""><b>Press left arrow key if the shape looks like this one.</b></span>
                </div>
                <div class=""photos"">
                    <img class=""image"" src=./stimuli//pack_noise_shapes_3/cat_2/prototype_2.png>
                    <div class=""word""><b>Press right arrow key if the shape looks like this one.</b></div>
                </div>
            </div>
        ","arrowright","ITI","","","","","","","",""
"","","","","","html-keyboard-response","85","149530","0.0-7.16-1.16","65577242d6ad4e548cb8929e","65801700b94e79b0c0532bf4","65801a3b4a565b35c08c45a5","2525","./stimuli//pack_noise_shapes_3/cat_1/diff_4/ex_1_4_8.mp4","arrowleft","response","ArrowLeft","8","1","4","test","true","",""
"","","","","","html-keyboard-response","86","151046","0.0-7.16-2.16","65577242d6ad4e548cb8929e","65801700b94e79b0c0532bf4","65801a3b4a565b35c08c45a5","null","<p> <font color=""green"" size=""5vw""> Correct match! </font> <br> <br> <font color=""green"" size=""8vw""> + $0.06 </font> </p>","null","feedback","","","","","","","0.98","0.06"
"","","","","","html-keyboard-response","87","151673","0.0-7.17-0.17","65577242d6ad4e548cb8929e","65801700b94e79b0c0532bf4","65801a3b4a565b35c08c45a5","626","
            
        <div style=""text-align: center; position: fixed; top: 5vh; left: 40vw;"">
            <div style=""margin:0 auto; width: 20vw; top: 8vh; font-size: 2vw""> 
            <font color=""green""> Bonus : $0.98 </font>
            </div>
        </div>
    
            <p> Please press any key to continue to the next movie.</p>
            <p> Remember your choices : <p>
            <div class=""container"">
                <div class=""photos"">
                    <img class=""image"" src=./stimuli//pack_noise_shapes_3/cat_1/prototype_1.png>
                    <span class=""word""><b>Press left arrow key if the shape looks like this one.</b></span>
                </div>
                <div class=""photos"">
                    <img class=""image"" src=./stimuli//pack_noise_shapes_3/cat_2/prototype_2.png>
                    <div class=""word""><b>Press right arrow key if the shape looks like this one.</b></div>
                </div>
            </div>
        ","arrowright","ITI","","","","","","","",""
"","","","","","html-keyboard-response","88","153993","0.0-7.17-1.17","65577242d6ad4e548cb8929e","65801700b94e79b0c0532bf4","65801a3b4a565b35c08c45a5","2316","./stimuli//pack_noise_shapes_3/cat_2/diff_4/ex_2_4_5.mp4","arrowleft","response","ArrowRight","5","2","4","test","false","",""
"","","","","","html-keyboard-response","89","158999","0.0-7.17-2.17","65577242d6ad4e548cb8929e","65801700b94e79b0c0532bf4","65801a3b4a565b35c08c45a5","null","<p> <font color=""red"" size=""5vw""> Wrong match! </font> <br> <br> <font color=""red"" size=""8vw""> - $0.1 </font> </p>","null","feedback","","","","","","","0.88","-0.1"
"","","","","","html-keyboard-response","90","159016","0.0-7.18-0.18","65577242d6ad4e548cb8929e","65801700b94e79b0c0532bf4","65801a3b4a565b35c08c45a5","16","
            
        <div style=""text-align: center; position: fixed; top: 5vh; left: 40vw;"">
            <div style=""margin:0 auto; width: 20vw; top: 8vh; font-size: 2vw""> 
            <font color=""green""> Bonus : $0.88 </font>
            </div>
        </div>
    
            <p> Please press any key to continue to the next movie.</p>
            <p> Remember your choices : <p>
            <div class=""container"">
                <div class=""photos"">
                    <img class=""image"" src=./stimuli//pack_noise_shapes_3/cat_1/prototype_1.png>
                    <span class=""word""><b>Press left arrow key if the shape looks like this one.</b></span>
                </div>
                <div class=""photos"">
                    <img class=""image"" src=./stimuli//pack_noise_shapes_3/cat_2/prototype_2.png>
                    <div class=""word""><b>Press right arrow key if the shape looks like this one.</b></div>
                </div>
            </div>
        ","arrowright","ITI","","","","","","","",""
"","","","","","html-keyboard-response","91","161193","0.0-7.18-1.18","65577242d6ad4e548cb8929e","65801700b94e79b0c0532bf4","65801a3b4a565b35c08c45a5","2176","./stimuli//pack_noise_shapes_3/cat_2/diff_4/ex_2_4_9.mp4","arrowleft","response","ArrowRight","9","2","4","test","false","",""
"","","","","","html-keyboard-response","92","166207","0.0-7.18-2.18","65577242d6ad4e548cb8929e","65801700b94e79b0c0532bf4","65801a3b4a565b35c08c45a5","null","<p> <font color=""red"" size=""5vw""> Wrong match! </font> <br> <br> <font color=""red"" size=""8vw""> - $0.1 </font> </p>","null","feedback","","","","","","","0.78","-0.1"
"","","","","","html-keyboard-response","93","166794","0.0-7.19-0.19","65577242d6ad4e548cb8929e","65801700b94e79b0c0532bf4","65801a3b4a565b35c08c45a5","585","
            
        <div style=""text-align: center; position: fixed; top: 5vh; left: 40vw;"">
            <div style=""margin:0 auto; width: 20vw; top: 8vh; font-size: 2vw""> 
            <font color=""green""> Bonus : $0.78 </font>
            </div>
        </div>
    
            <p> Please press any key to continue to the next movie.</p>
            <p> Remember your choices : <p>
            <div class=""container"">
                <div class=""photos"">
                    <img class=""image"" src=./stimuli//pack_noise_shapes_3/cat_1/prototype_1.png>
                    <span class=""word""><b>Press left arrow key if the shape looks like this one.</b></span>
                </div>
                <div class=""photos"">
                    <img class=""image"" src=./stimuli//pack_noise_shapes_3/cat_2/prototype_2.png>
                    <div class=""word""><b>Press right arrow key if the shape looks like this one.</b></div>
                </div>
            </div>
        ","arrowright","ITI","","","","","","","",""
"","","","","","html-keyboard-response","94","169290","0.0-7.19-1.19","65577242d6ad4e548cb8929e","65801700b94e79b0c0532bf4","65801a3b4a565b35c08c45a5","2493","./stimuli//pack_noise_shapes_3/cat_2/diff_4/ex_2_4_1.mp4","arrowleft","response","ArrowRight","1","2","4","test","false","",""
"","","","","","html-keyboard-response","95","174297","0.0-7.19-2.19","65577242d6ad4e548cb8929e","65801700b94e79b0c0532bf4","65801a3b4a565b35c08c45a5","null","<p> <font color=""red"" size=""5vw""> Wrong match! </font> <br> <br> <font color=""red"" size=""8vw""> - $0.1 </font> </p>","null","feedback","","","","","","","0.68","-0.1"
"","","","","","html-keyboard-response","96","175545","0.0-7.20-0.20","65577242d6ad4e548cb8929e","65801700b94e79b0c0532bf4","65801a3b4a565b35c08c45a5","1246","
            
        <div style=""text-align: center; position: fixed; top: 5vh; left: 40vw;"">
            <div style=""margin:0 auto; width: 20vw; top: 8vh; font-size: 2vw""> 
            <font color=""green""> Bonus : $0.68 </font>
            </div>
        </div>
    
            <p> Please press any key to continue to the next movie.</p>
            <p> Remember your choices : <p>
            <div class=""container"">
                <div class=""photos"">
                    <img class=""image"" src=./stimuli//pack_noise_shapes_3/cat_1/prototype_1.png>
                    <span class=""word""><b>Press left arrow key if the shape looks like this one.</b></span>
                </div>
                <div class=""photos"">
                    <img class=""image"" src=./stimuli//pack_noise_shapes_3/cat_2/prototype_2.png>
                    <div class=""word""><b>Press right arrow key if the shape looks like this one.</b></div>
                </div>
            </div>
        ","arrowright","ITI","","","","","","","",""
"","","","","","html-keyboard-response","97","178392","0.0-7.20-1.20","65577242d6ad4e548cb8929e","65801700b94e79b0c0532bf4","65801a3b4a565b35c08c45a5","2846","./stimuli//pack_noise_shapes_3/cat_1/diff_3/ex_1_3_7.mp4","arrowleft","response","ArrowLeft","7","1","3","test","true","",""
"","","","","","html-keyboard-response","98","179910","0.0-7.20-2.20","65577242d6ad4e548cb8929e","65801700b94e79b0c0532bf4","65801a3b4a565b35c08c45a5","null","<p> <font color=""green"" size=""5vw""> Correct match! </font> <br> <br> <font color=""green"" size=""8vw""> + $0.06 </font> </p>","null","feedback","","","","","","","0.74","0.06"
"","","","","","html-keyboard-response","99","180956","0.0-7.21-0.21","65577242d6ad4e548cb8929e","65801700b94e79b0c0532bf4","65801a3b4a565b35c08c45a5","1045","
            
        <div style=""text-align: center; position: fixed; top: 5vh; left: 40vw;"">
            <div style=""margin:0 auto; width: 20vw; top: 8vh; font-size: 2vw""> 
            <font color=""green""> Bonus : $0.74 </font>
            </div>
        </div>
    
            <p> Please press any key to continue to the next movie.</p>
            <p> Remember your choices : <p>
            <div class=""container"">
                <div class=""photos"">
                    <img class=""image"" src=./stimuli//pack_noise_shapes_3/cat_1/prototype_1.png>
                    <span class=""word""><b>Press left arrow key if the shape looks like this one.</b></span>
                </div>
                <div class=""photos"">
                    <img class=""image"" src=./stimuli//pack_noise_shapes_3/cat_2/prototype_2.png>
                    <div class=""word""><b>Press right arrow key if the shape looks like this one.</b></div>
                </div>
            </div>
        ","arrowright","ITI","","","","","","","",""
"","","","","","html-keyboard-response","100","183581","0.0-7.21-1.21","65577242d6ad4e548cb8929e","65801700b94e79b0c0532bf4","65801a3b4a565b35c08c45a5","2622","./stimuli//pack_noise_shapes_3/cat_2/diff_3/ex_2_3_3.mp4","arrowleft","response","ArrowRight","3","2","3","test","false","",""
"","","","","","html-keyboard-response","101","188599","0.0-7.21-2.21","65577242d6ad4e548cb8929e","65801700b94e79b0c0532bf4","65801a3b4a565b35c08c45a5","null","<p> <font color=""red"" size=""5vw""> Wrong match! </font> <br> <br> <font color=""red"" size=""8vw""> - $0.1 </font> </p>","null","feedback","","","","","","","0.64","-0.1"
"","","","","","html-keyboard-response","102","188972","0.0-7.22-0.22","65577242d6ad4e548cb8929e","65801700b94e79b0c0532bf4","65801a3b4a565b35c08c45a5","371","
            
        <div style=""text-align: center; position: fixed; top: 5vh; left: 40vw;"">
            <div style=""margin:0 auto; width: 20vw; top: 8vh; font-size: 2vw""> 
            <font color=""green""> Bonus : $0.64 </font>
            </div>
        </div>
    
            <p> Please press any key to continue to the next movie.</p>
            <p> Remember your choices : <p>
            <div class=""container"">
                <div class=""photos"">
                    <img class=""image"" src=./stimuli//pack_noise_shapes_3/cat_1/prototype_1.png>
                    <span class=""word""><b>Press left arrow key if the shape looks like this one.</b></span>
                </div>
                <div class=""photos"">
                    <img class=""image"" src=./stimuli//pack_noise_shapes_3/cat_2/prototype_2.png>
                    <div class=""word""><b>Press right arrow key if the shape looks like this one.</b></div>
                </div>
            </div>
        ","arrowright","ITI","","","","","","","",""
"","","","","","html-keyboard-response","103","191547","0.0-7.22-1.22","65577242d6ad4e548cb8929e","65801700b94e79b0c0532bf4","65801a3b4a565b35c08c45a5","2572","./stimuli//pack_noise_shapes_3/cat_2/diff_3/ex_2_3_2.mp4","arrowright","response","ArrowRight","2","2","3","test","true","",""
"","","","","","html-keyboard-response","104","193051","0.0-7.22-2.22","65577242d6ad4e548cb8929e","65801700b94e79b0c0532bf4","65801a3b4a565b35c08c45a5","null","<p> <font color=""green"" size=""5vw""> Correct match! </font> <br> <br> <font color=""green"" size=""8vw""> + $0.11 </font> </p>","null","feedback","","","","","","","0.75","0.11"
"","","","","","html-keyboard-response","105","193804","0.0-7.23-0.23","65577242d6ad4e548cb8929e","65801700b94e79b0c0532bf4","65801a3b4a565b35c08c45a5","750","
            
        <div style=""text-align: center; position: fixed; top: 5vh; left: 40vw;"">
            <div style=""margin:0 auto; width: 20vw; top: 8vh; font-size: 2vw""> 
            <font color=""green""> Bonus : $0.75 </font>
            </div>
        </div>
    
            <p> Please press any key to continue to the next movie.</p>
            <p> Remember your choices : <p>
            <div class=""container"">
                <div class=""photos"">
                    <img class=""image"" src=./stimuli//pack_noise_shapes_3/cat_1/prototype_1.png>
                    <span class=""word""><b>Press left arrow key if the shape looks like this one.</b></span>
                </div>
                <div class=""photos"">
                    <img class=""image"" src=./stimuli//pack_noise_shapes_3/cat_2/prototype_2.png>
                    <div class=""word""><b>Press right arrow key if the shape looks like this one.</b></div>
                </div>
            </div>
        ","arrowright","ITI","","","","","","","",""
"","","","","","html-keyboard-response","106","195868","0.0-7.23-1.23","65577242d6ad4e548cb8929e","65801700b94e79b0c0532bf4","65801a3b4a565b35c08c45a5","2061","./stimuli//pack_noise_shapes_3/cat_2/diff_3/ex_2_3_6.mp4","arrowright","response","ArrowRight","6","2","3","test","true","",""
"","","","","","html-keyboard-response","107","197379","0.0-7.23-2.23","65577242d6ad4e548cb8929e","65801700b94e79b0c0532bf4","65801a3b4a565b35c08c45a5","null","<p> <font color=""green"" size=""5vw""> Correct match! </font> <br> <br> <font color=""green"" size=""8vw""> + $0.12 </font> </p>","null","feedback","","","","","","","0.87","0.12"
"","","","","","html-keyboard-response","108","198315","0.0-7.24-0.24","65577242d6ad4e548cb8929e","65801700b94e79b0c0532bf4","65801a3b4a565b35c08c45a5","934","
            
        <div style=""text-align: center; position: fixed; top: 5vh; left: 40vw;"">
            <div style=""margin:0 auto; width: 20vw; top: 8vh; font-size: 2vw""> 
            <font color=""green""> Bonus : $0.87 </font>
            </div>
        </div>
    
            <p> Please press any key to continue to the next movie.</p>
            <p> Remember your choices : <p>
            <div class=""container"">
                <div class=""photos"">
                    <img class=""image"" src=./stimuli//pack_noise_shapes_3/cat_1/prototype_1.png>
                    <span class=""word""><b>Press left arrow key if the shape looks like this one.</b></span>
                </div>
                <div class=""photos"">
                    <img class=""image"" src=./stimuli//pack_noise_shapes_3/cat_2/prototype_2.png>
                    <div class=""word""><b>Press right arrow key if the shape looks like this one.</b></div>
                </div>
            </div>
        ","arrowright","ITI","","","","","","","",""
"","","","","","html-keyboard-response","109","201100","0.0-7.24-1.24","65577242d6ad4e548cb8929e","65801700b94e79b0c0532bf4","65801a3b4a565b35c08c45a5","2784","./stimuli//pack_noise_shapes_3/cat_2/diff_3/ex_2_3_7.mp4","arrowright","response","ArrowRight","7","2","3","test","true","",""
"","","","","","html-keyboard-response","110","202617","0.0-7.24-2.24","65577242d6ad4e548cb8929e","65801700b94e79b0c0532bf4","65801a3b4a565b35c08c45a5","null","<p> <font color=""green"" size=""5vw""> Correct match! </font> <br> <br> <font color=""green"" size=""8vw""> + $0.11 </font> </p>","null","feedback","","","","","","","0.98","0.11"
"","","","","","html-keyboard-response","111","203692","0.0-7.25-0.25","65577242d6ad4e548cb8929e","65801700b94e79b0c0532bf4","65801a3b4a565b35c08c45a5","1073","
            
        <div style=""text-align: center; position: fixed; top: 5vh; left: 40vw;"">
            <div style=""margin:0 auto; width: 20vw; top: 8vh; font-size: 2vw""> 
            <font color=""green""> Bonus : $0.98 </font>
            </div>
        </div>
    
            <p> Please press any key to continue to the next movie.</p>
            <p> Remember your choices : <p>
            <div class=""container"">
                <div class=""photos"">
                    <img class=""image"" src=./stimuli//pack_noise_shapes_3/cat_1/prototype_1.png>
                    <span class=""word""><b>Press left arrow key if the shape looks like this one.</b></span>
                </div>
                <div class=""photos"">
                    <img class=""image"" src=./stimuli//pack_noise_shapes_3/cat_2/prototype_2.png>
                    <div class=""word""><b>Press right arrow key if the shape looks like this one.</b></div>
                </div>
            </div>
        ","arrowright","ITI","","","","","","","",""
"","","","","","html-keyboard-response","112","206044","0.0-7.25-1.25","65577242d6ad4e548cb8929e","65801700b94e79b0c0532bf4","65801a3b4a565b35c08c45a5","2349","./stimuli//pack_noise_shapes_3/cat_2/diff_4/ex_2_4_14.mp4","arrowright","response","ArrowRight","14","2","4","test","true","",""
"","","","","","html-keyboard-response","113","207554","0.0-7.25-2.25","65577242d6ad4e548cb8929e","65801700b94e79b0c0532bf4","65801a3b4a565b35c08c45a5","null","<p> <font color=""green"" size=""5vw""> Correct match! </font> <br> <br> <font color=""green"" size=""8vw""> + $0.11 </font> </p>","null","feedback","","","","","","","1.09","0.11"
"","","","","","html-keyboard-response","114","207979","0.0-7.26-0.26","65577242d6ad4e548cb8929e","65801700b94e79b0c0532bf4","65801a3b4a565b35c08c45a5","423","
            
        <div style=""text-align: center; position: fixed; top: 5vh; left: 40vw;"">
            <div style=""margin:0 auto; width: 20vw; top: 8vh; font-size: 2vw""> 
            <font color=""green""> Bonus : $1.09 </font>
            </div>
        </div>
    
            <p> Please press any key to continue to the next movie.</p>
            <p> Remember your choices : <p>
            <div class=""container"">
                <div class=""photos"">
                    <img class=""image"" src=./stimuli//pack_noise_shapes_3/cat_1/prototype_1.png>
                    <span class=""word""><b>Press left arrow key if the shape looks like this one.</b></span>
                </div>
                <div class=""photos"">
                    <img class=""image"" src=./stimuli//pack_noise_shapes_3/cat_2/prototype_2.png>
                    <div class=""word""><b>Press right arrow key if the shape looks like this one.</b></div>
                </div>
            </div>
        ","arrowright","ITI","","","","","","","",""
"","","","","","html-keyboard-response","115","209964","0.0-7.26-1.26","65577242d6ad4e548cb8929e","65801700b94e79b0c0532bf4","65801a3b4a565b35c08c45a5","1984","./stimuli//pack_noise_shapes_3/cat_2/diff_4/ex_2_4_15.mp4","arrowright","response","ArrowRight","15","2","4","test","true","",""
"","","","","","html-keyboard-response","116","211474","0.0-7.26-2.26","65577242d6ad4e548cb8929e","65801700b94e79b0c0532bf4","65801a3b4a565b35c08c45a5","null","<p> <font color=""green"" size=""5vw""> Correct match! </font> <br> <br> <font color=""green"" size=""8vw""> + $0.12 </font> </p>","null","feedback","","","","","","","1.21","0.12"
"","","","","","html-keyboard-response","117","211787","0.0-7.27-0.27","65577242d6ad4e548cb8929e","65801700b94e79b0c0532bf4","65801a3b4a565b35c08c45a5","311","
            
        <div style=""text-align: center; position: fixed; top: 5vh; left: 40vw;"">
            <div style=""margin:0 auto; width: 20vw; top: 8vh; font-size: 2vw""> 
            <font color=""green""> Bonus : $1.21 </font>
            </div>
        </div>
    
            <p> Please press any key to continue to the next movie.</p>
            <p> Remember your choices : <p>
            <div class=""container"">
                <div class=""photos"">
                    <img class=""image"" src=./stimuli//pack_noise_shapes_3/cat_1/prototype_1.png>
                    <span class=""word""><b>Press left arrow key if the shape looks like this one.</b></span>
                </div>
                <div class=""photos"">
                    <img class=""image"" src=./stimuli//pack_noise_shapes_3/cat_2/prototype_2.png>
                    <div class=""word""><b>Press right arrow key if the shape looks like this one.</b></div>
                </div>
            </div>
        ","arrowright","ITI","","","","","","","",""
"","","","","","html-keyboard-response","118","215500","0.0-7.27-1.27","65577242d6ad4e548cb8929e","65801700b94e79b0c0532bf4","65801a3b4a565b35c08c45a5","3711","./stimuli//pack_noise_shapes_3/cat_2/diff_4/ex_2_4_5.mp4","arrowleft","response","ArrowRight","5","2","4","test","false","",""
"","","","","","html-keyboard-response","119","220512","0.0-7.27-2.27","65577242d6ad4e548cb8929e","65801700b94e79b0c0532bf4","65801a3b4a565b35c08c45a5","null","<p> <font color=""red"" size=""5vw""> Wrong match! </font> <br> <br> <font color=""red"" size=""8vw""> - $0.1 </font> </p>","null","feedback","","","","","","","1.11","-0.1"
"","","","","","html-keyboard-response","120","220876","0.0-7.28-0.28","65577242d6ad4e548cb8929e","65801700b94e79b0c0532bf4","65801a3b4a565b35c08c45a5","362","
            
        <div style=""text-align: center; position: fixed; top: 5vh; left: 40vw;"">
            <div style=""margin:0 auto; width: 20vw; top: 8vh; font-size: 2vw""> 
            <font color=""green""> Bonus : $1.11 </font>
            </div>
        </div>
    
            <p> Please press any key to continue to the next movie.</p>
            <p> Remember your choices : <p>
            <div class=""container"">
                <div class=""photos"">
                    <img class=""image"" src=./stimuli//pack_noise_shapes_3/cat_1/prototype_1.png>
                    <span class=""word""><b>Press left arrow key if the shape looks like this one.</b></span>
                </div>
                <div class=""photos"">
                    <img class=""image"" src=./stimuli//pack_noise_shapes_3/cat_2/prototype_2.png>
                    <div class=""word""><b>Press right arrow key if the shape looks like this one.</b></div>
                </div>
            </div>
        ","arrowright","ITI","","","","","","","",""
"","","","","","html-keyboard-response","121","223115","0.0-7.28-1.28","65577242d6ad4e548cb8929e","65801700b94e79b0c0532bf4","65801a3b4a565b35c08c45a5","2236","./stimuli//pack_noise_shapes_3/cat_1/diff_4/ex_1_4_8.mp4","arrowleft","response","ArrowLeft","8","1","4","test","true","",""
"","","","","","html-keyboard-response","122","224621","0.0-7.28-2.28","65577242d6ad4e548cb8929e","65801700b94e79b0c0532bf4","65801a3b4a565b35c08c45a5","null","<p> <font color=""green"" size=""5vw""> Correct match! </font> <br> <br> <font color=""green"" size=""8vw""> + $0.11 </font> </p>","null","feedback","","","","","","","1.22","0.11"
"","","","","","html-keyboard-response","123","225258","0.0-7.29-0.29","65577242d6ad4e548cb8929e","65801700b94e79b0c0532bf4","65801a3b4a565b35c08c45a5","636","
            
        <div style=""text-align: center; position: fixed; top: 5vh; left: 40vw;"">
            <div style=""margin:0 auto; width: 20vw; top: 8vh; font-size: 2vw""> 
            <font color=""green""> Bonus : $1.22 </font>
            </div>
        </div>
    
            <p> Please press any key to continue to the next movie.</p>
            <p> Remember your choices : <p>
            <div class=""container"">
                <div class=""photos"">
                    <img class=""image"" src=./stimuli//pack_noise_shapes_3/cat_1/prototype_1.png>
                    <span class=""word""><b>Press left arrow key if the shape looks like this one.</b></span>
                </div>
                <div class=""photos"">
                    <img class=""image"" src=./stimuli//pack_noise_shapes_3/cat_2/prototype_2.png>
                    <div class=""word""><b>Press right arrow key if the shape looks like this one.</b></div>
                </div>
            </div>
        ","arrowright","ITI","","","","","","","",""
"","","","","","html-keyboard-response","124","227739","0.0-7.29-1.29","65577242d6ad4e548cb8929e","65801700b94e79b0c0532bf4","65801a3b4a565b35c08c45a5","2479","./stimuli//pack_noise_shapes_3/cat_2/diff_4/ex_2_4_9.mp4","arrowleft","response","ArrowRight","9","2","4","test","false","",""
"","","","","","html-keyboard-response","125","232746","0.0-7.29-2.29","65577242d6ad4e548cb8929e","65801700b94e79b0c0532bf4","65801a3b4a565b35c08c45a5","null","<p> <font color=""red"" size=""5vw""> Wrong match! </font> <br> <br> <font color=""red"" size=""8vw""> - $0.1 </font> </p>","null","feedback","","","","","","","1.12","-0.1"
"","","","","","html-keyboard-response","126","243823","0.0-7.30-0.30","65577242d6ad4e548cb8929e","65801700b94e79b0c0532bf4","65801a3b4a565b35c08c45a5","11084","
            
        <div style=""text-align: center; position: fixed; top: 5vh; left: 40vw;"">
            <div style=""margin:0 auto; width: 20vw; top: 8vh; font-size: 2vw""> 
            <font color=""green""> Bonus : $1.12 </font>
            </div>
        </div>
    
            <p> Please press any key to continue to the next movie.</p>
            <p> Remember your choices : <p>
            <div class=""container"">
                <div class=""photos"">
                    <img class=""image"" src=./stimuli//pack_noise_shapes_3/cat_1/prototype_1.png>
                    <span class=""word""><b>Press left arrow key if the shape looks like this one.</b></span>
                </div>
                <div class=""photos"">
                    <img class=""image"" src=./stimuli//pack_noise_shapes_3/cat_2/prototype_2.png>
                    <div class=""word""><b>Press right arrow key if the shape looks like this one.</b></div>
                </div>
            </div>
        ","arrowright","ITI","","","","","","","",""
"","","","","","html-keyboard-response","127","246271","0.0-7.30-1.30","65577242d6ad4e548cb8929e","65801700b94e79b0c0532bf4","65801a3b4a565b35c08c45a5","2447","./stimuli//pack_noise_shapes_3/cat_1/diff_3/ex_1_3_16.mp4","arrowleft","response","ArrowLeft","16","1","3","test","true","",""
"","","","","","html-keyboard-response","128","247782","0.0-7.30-2.30","65577242d6ad4e548cb8929e","65801700b94e79b0c0532bf4","65801a3b4a565b35c08c45a5","null","<p> <font color=""green"" size=""5vw""> Correct match! </font> <br> <br> <font color=""green"" size=""8vw""> + $0.11 </font> </p>","null","feedback","","","","","","","1.23","0.11"
"","","","","","html-keyboard-response","129","249614","0.0-7.31-0.31","65577242d6ad4e548cb8929e","65801700b94e79b0c0532bf4","65801a3b4a565b35c08c45a5","1831","
            
        <div style=""text-align: center; position: fixed; top: 5vh; left: 40vw;"">
            <div style=""margin:0 auto; width: 20vw; top: 8vh; font-size: 2vw""> 
            <font color=""green""> Bonus : $1.23 </font>
            </div>
        </div>
    
            <p> Please press any key to continue to the next movie.</p>
            <p> Remember your choices : <p>
            <div class=""container"">
                <div class=""photos"">
                    <img class=""image"" src=./stimuli//pack_noise_shapes_3/cat_1/prototype_1.png>
                    <span class=""word""><b>Press left arrow key if the shape looks like this one.</b></span>
                </div>
                <div class=""photos"">
                    <img class=""image"" src=./stimuli//pack_noise_shapes_3/cat_2/prototype_2.png>
                    <div class=""word""><b>Press right arrow key if the shape looks like this one.</b></div>
                </div>
            </div>
        ","arrowright","ITI","","","","","","","",""
"","","","","","html-keyboard-response","130","252240","0.0-7.31-1.31","65577242d6ad4e548cb8929e","65801700b94e79b0c0532bf4","65801a3b4a565b35c08c45a5","2624","./stimuli//pack_noise_shapes_3/cat_2/diff_3/ex_2_3_2.mp4","arrowright","response","ArrowRight","2","2","3","test","true","",""
"","","","","","html-keyboard-response","131","253752","0.0-7.31-2.31","65577242d6ad4e548cb8929e","65801700b94e79b0c0532bf4","65801a3b4a565b35c08c45a5","null","<p> <font color=""green"" size=""5vw""> Correct match! </font> <br> <br> <font color=""green"" size=""8vw""> + $0.11 </font> </p>","null","feedback","","","","","","","1.34","0.11"
"","","","","","html-keyboard-response","132","254176","0.0-7.32-0.32","65577242d6ad4e548cb8929e","65801700b94e79b0c0532bf4","65801a3b4a565b35c08c45a5","423","
            
        <div style=""text-align: center; position: fixed; top: 5vh; left: 40vw;"">
            <div style=""margin:0 auto; width: 20vw; top: 8vh; font-size: 2vw""> 
            <font color=""green""> Bonus : $1.34 </font>
            </div>
        </div>
    
            <p> Please press any key to continue to the next movie.</p>
            <p> Remember your choices : <p>
            <div class=""container"">
                <div class=""photos"">
                    <img class=""image"" src=./stimuli//pack_noise_shapes_3/cat_1/prototype_1.png>
                    <span class=""word""><b>Press left arrow key if the shape looks like this one.</b></span>
                </div>
                <div class=""photos"">
                    <img class=""image"" src=./stimuli//pack_noise_shapes_3/cat_2/prototype_2.png>
                    <div class=""word""><b>Press right arrow key if the shape looks like this one.</b></div>
                </div>
            </div>
        ","arrowright","ITI","","","","","","","",""
"","","","","","html-keyboard-response","133","256720","0.0-7.32-1.32","65577242d6ad4e548cb8929e","65801700b94e79b0c0532bf4","65801a3b4a565b35c08c45a5","2541","./stimuli//pack_noise_shapes_3/cat_1/diff_3/ex_1_3_2.mp4","arrowleft","response","ArrowLeft","2","1","3","test","true","",""
"","","","","","html-keyboard-response","134","258228","0.0-7.32-2.32","65577242d6ad4e548cb8929e","65801700b94e79b0c0532bf4","65801a3b4a565b35c08c45a5","null","<p> <font color=""green"" size=""5vw""> Correct match! </font> <br> <br> <font color=""green"" size=""8vw""> + $0.11 </font> </p>","null","feedback","","","","","","","1.45","0.11"
"","","","","","html-keyboard-response","135","262241","0.0-7.33-0.33","65577242d6ad4e548cb8929e","65801700b94e79b0c0532bf4","65801a3b4a565b35c08c45a5","4011","
            
        <div style=""text-align: center; position: fixed; top: 5vh; left: 40vw;"">
            <div style=""margin:0 auto; width: 20vw; top: 8vh; font-size: 2vw""> 
            <font color=""green""> Bonus : $1.45 </font>
            </div>
        </div>
    
            <p> Please press any key to continue to the next movie.</p>
            <p> Remember your choices : <p>
            <div class=""container"">
                <div class=""photos"">
                    <img class=""image"" src=./stimuli//pack_noise_shapes_3/cat_1/prototype_1.png>
                    <span class=""word""><b>Press left arrow key if the shape looks like this one.</b></span>
                </div>
                <div class=""photos"">
                    <img class=""image"" src=./stimuli//pack_noise_shapes_3/cat_2/prototype_2.png>
                    <div class=""word""><b>Press right arrow key if the shape looks like this one.</b></div>
                </div>
            </div>
        ","arrowright","ITI","","","","","","","",""
"","","","","","html-keyboard-response","136","264750","0.0-7.33-1.33","65577242d6ad4e548cb8929e","65801700b94e79b0c0532bf4","65801a3b4a565b35c08c45a5","2508","./stimuli//pack_noise_shapes_3/cat_2/diff_3/ex_2_3_4.mp4","arrowright","response","ArrowRight","4","2","3","test","true","",""
"","","","","","html-keyboard-response","137","266252","0.0-7.33-2.33","65577242d6ad4e548cb8929e","65801700b94e79b0c0532bf4","65801a3b4a565b35c08c45a5","null","<p> <font color=""green"" size=""5vw""> Correct match! </font> <br> <br> <font color=""green"" size=""8vw""> + $0.11 </font> </p>","null","feedback","","","","","","","1.56","0.11"
"","","","","","html-keyboard-response","138","268704","0.0-7.34-0.34","65577242d6ad4e548cb8929e","65801700b94e79b0c0532bf4","65801a3b4a565b35c08c45a5","2449","
            
        <div style=""text-align: center; position: fixed; top: 5vh; left: 40vw;"">
            <div style=""margin:0 auto; width: 20vw; top: 8vh; font-size: 2vw""> 
            <font color=""green""> Bonus : $1.56 </font>
            </div>
        </div>
    
            <p> Please press any key to continue to the next movie.</p>
            <p> Remember your choices : <p>
            <div class=""container"">
                <div class=""photos"">
                    <img class=""image"" src=./stimuli//pack_noise_shapes_3/cat_1/prototype_1.png>
                    <span class=""word""><b>Press left arrow key if the shape looks like this one.</b></span>
                </div>
                <div class=""photos"">
                    <img class=""image"" src=./stimuli//pack_noise_shapes_3/cat_2/prototype_2.png>
                    <div class=""word""><b>Press right arrow key if the shape looks like this one.</b></div>
                </div>
            </div>
        ","arrowright","ITI","","","","","","","",""
"","","","","","html-keyboard-response","139","271055","0.0-7.34-1.34","65577242d6ad4e548cb8929e","65801700b94e79b0c0532bf4","65801a3b4a565b35c08c45a5","2348","./stimuli//pack_noise_shapes_3/cat_1/diff_3/ex_1_3_14.mp4","arrowleft","response","ArrowLeft","14","1","3","test","true","",""
"","","","","","html-keyboard-response","140","272559","0.0-7.34-2.34","65577242d6ad4e548cb8929e","65801700b94e79b0c0532bf4","65801a3b4a565b35c08c45a5","null","<p> <font color=""green"" size=""5vw""> Correct match! </font> <br> <br> <font color=""green"" size=""8vw""> + $0.11 </font> </p>","null","feedback","","","","","","","1.67","0.11"
"","","","","","html-keyboard-response","141","273022","0.0-7.35-0.35","65577242d6ad4e548cb8929e","65801700b94e79b0c0532bf4","65801a3b4a565b35c08c45a5","462","
            
        <div style=""text-align: center; position: fixed; top: 5vh; left: 40vw;"">
            <div style=""margin:0 auto; width: 20vw; top: 8vh; font-size: 2vw""> 
            <font color=""green""> Bonus : $1.67 </font>
            </div>
        </div>
    
            <p> Please press any key to continue to the next movie.</p>
            <p> Remember your choices : <p>
            <div class=""container"">
                <div class=""photos"">
                    <img class=""image"" src=./stimuli//pack_noise_shapes_3/cat_1/prototype_1.png>
                    <span class=""word""><b>Press left arrow key if the shape looks like this one.</b></span>
                </div>
                <div class=""photos"">
                    <img class=""image"" src=./stimuli//pack_noise_shapes_3/cat_2/prototype_2.png>
                    <div class=""word""><b>Press right arrow key if the shape looks like this one.</b></div>
                </div>
            </div>
        ","arrowright","ITI","","","","","","","",""
"","","","","","html-keyboard-response","142","275455","0.0-7.35-1.35","65577242d6ad4e548cb8929e","65801700b94e79b0c0532bf4","65801a3b4a565b35c08c45a5","2431","./stimuli//pack_noise_shapes_3/cat_2/diff_4/ex_2_4_12.mp4","arrowright","response","ArrowRight","12","2","4","test","true","",""
"","","","","","html-keyboard-response","143","276961","0.0-7.35-2.35","65577242d6ad4e548cb8929e","65801700b94e79b0c0532bf4","65801a3b4a565b35c08c45a5","null","<p> <font color=""green"" size=""5vw""> Correct match! </font> <br> <br> <font color=""green"" size=""8vw""> + $0.11 </font> </p>","null","feedback","","","","","","","1.78","0.11"
"","","","","","html-keyboard-response","144","277376","0.0-7.36-0.36","65577242d6ad4e548cb8929e","65801700b94e79b0c0532bf4","65801a3b4a565b35c08c45a5","414","
            
        <div style=""text-align: center; position: fixed; top: 5vh; left: 40vw;"">
            <div style=""margin:0 auto; width: 20vw; top: 8vh; font-size: 2vw""> 
            <font color=""green""> Bonus : $1.78 </font>
            </div>
        </div>
    
            <p> Please press any key to continue to the next movie.</p>
            <p> Remember your choices : <p>
            <div class=""container"">
                <div class=""photos"">
                    <img class=""image"" src=./stimuli//pack_noise_shapes_3/cat_1/prototype_1.png>
                    <span class=""word""><b>Press left arrow key if the shape looks like this one.</b></span>
                </div>
                <div class=""photos"">
                    <img class=""image"" src=./stimuli//pack_noise_shapes_3/cat_2/prototype_2.png>
                    <div class=""word""><b>Press right arrow key if the shape looks like this one.</b></div>
                </div>
            </div>
        ","arrowright","ITI","","","","","","","",""
"","","","","","html-keyboard-response","145","279840","0.0-7.36-1.36","65577242d6ad4e548cb8929e","65801700b94e79b0c0532bf4","65801a3b4a565b35c08c45a5","2461","./stimuli//pack_noise_shapes_3/cat_1/diff_4/ex_1_4_16.mp4","arrowleft","response","ArrowLeft","16","1","4","test","true","",""
"","","","","","html-keyboard-response","146","281351","0.0-7.36-2.36","65577242d6ad4e548cb8929e","65801700b94e79b0c0532bf4","65801a3b4a565b35c08c45a5","null","<p> <font color=""green"" size=""5vw""> Correct match! </font> <br> <br> <font color=""green"" size=""8vw""> + $0.11 </font> </p>","null","feedback","","","","","","","1.89","0.11"
"","","","","","html-keyboard-response","147","282286","0.0-7.37-0.37","65577242d6ad4e548cb8929e","65801700b94e79b0c0532bf4","65801a3b4a565b35c08c45a5","935","
            
        <div style=""text-align: center; position: fixed; top: 5vh; left: 40vw;"">
            <div style=""margin:0 auto; width: 20vw; top: 8vh; font-size: 2vw""> 
            <font color=""green""> Bonus : $1.89 </font>
            </div>
        </div>
    
            <p> Please press any key to continue to the next movie.</p>
            <p> Remember your choices : <p>
            <div class=""container"">
                <div class=""photos"">
                    <img class=""image"" src=./stimuli//pack_noise_shapes_3/cat_1/prototype_1.png>
                    <span class=""word""><b>Press left arrow key if the shape looks like this one.</b></span>
                </div>
                <div class=""photos"">
                    <img class=""image"" src=./stimuli//pack_noise_shapes_3/cat_2/prototype_2.png>
                    <div class=""word""><b>Press right arrow key if the shape looks like this one.</b></div>
                </div>
            </div>
        ","arrowright","ITI","","","","","","","",""
"","","","","","html-keyboard-response","148","284686","0.0-7.37-1.37","65577242d6ad4e548cb8929e","65801700b94e79b0c0532bf4","65801a3b4a565b35c08c45a5","2399","./stimuli//pack_noise_shapes_3/cat_1/diff_4/ex_1_4_13.mp4","arrowleft","response","ArrowLeft","13","1","4","test","true","",""
"","","","","","html-keyboard-response","149","286189","0.0-7.37-2.37","65577242d6ad4e548cb8929e","65801700b94e79b0c0532bf4","65801a3b4a565b35c08c45a5","null","<p> <font color=""green"" size=""5vw""> Correct match! </font> <br> <br> <font color=""green"" size=""8vw""> + $0.11 </font> </p>","null","feedback","","","","","","","2","0.11"
"","","","","","html-keyboard-response","150","286752","0.0-7.38-0.38","65577242d6ad4e548cb8929e","65801700b94e79b0c0532bf4","65801a3b4a565b35c08c45a5","561","
            
        <div style=""text-align: center; position: fixed; top: 5vh; left: 40vw;"">
            <div style=""margin:0 auto; width: 20vw; top: 8vh; font-size: 2vw""> 
            <font color=""green""> Bonus : $2 </font>
            </div>
        </div>
    
            <p> Please press any key to continue to the next movie.</p>
            <p> Remember your choices : <p>
            <div class=""container"">
                <div class=""photos"">
                    <img class=""image"" src=./stimuli//pack_noise_shapes_3/cat_1/prototype_1.png>
                    <span class=""word""><b>Press left arrow key if the shape looks like this one.</b></span>
                </div>
                <div class=""photos"">
                    <img class=""image"" src=./stimuli//pack_noise_shapes_3/cat_2/prototype_2.png>
                    <div class=""word""><b>Press right arrow key if the shape looks like this one.</b></div>
                </div>
            </div>
        ","arrowright","ITI","","","","","","","",""
"","","","","","html-keyboard-response","151","288896","0.0-7.38-1.38","65577242d6ad4e548cb8929e","65801700b94e79b0c0532bf4","65801a3b4a565b35c08c45a5","2140","./stimuli//pack_noise_shapes_3/cat_1/diff_4/ex_1_4_8.mp4","arrowleft","response","ArrowLeft","8","1","4","test","true","",""
"","","","","","html-keyboard-response","152","290408","0.0-7.38-2.38","65577242d6ad4e548cb8929e","65801700b94e79b0c0532bf4","65801a3b4a565b35c08c45a5","null","<p> <font color=""green"" size=""5vw""> Correct match! </font> <br> <br> <font color=""green"" size=""8vw""> + $0.12 </font> </p>","null","feedback","","","","","","","2.12","0.12"
"","","","","","html-keyboard-response","153","290880","0.0-7.39-0.39","65577242d6ad4e548cb8929e","65801700b94e79b0c0532bf4","65801a3b4a565b35c08c45a5","471","
            
        <div style=""text-align: center; position: fixed; top: 5vh; left: 40vw;"">
            <div style=""margin:0 auto; width: 20vw; top: 8vh; font-size: 2vw""> 
            <font color=""green""> Bonus : $2.12 </font>
            </div>
        </div>
    
            <p> Please press any key to continue to the next movie.</p>
            <p> Remember your choices : <p>
            <div class=""container"">
                <div class=""photos"">
                    <img class=""image"" src=./stimuli//pack_noise_shapes_3/cat_1/prototype_1.png>
                    <span class=""word""><b>Press left arrow key if the shape looks like this one.</b></span>
                </div>
                <div class=""photos"">
                    <img class=""image"" src=./stimuli//pack_noise_shapes_3/cat_2/prototype_2.png>
                    <div class=""word""><b>Press right arrow key if the shape looks like this one.</b></div>
                </div>
            </div>
        ","arrowleft","ITI","","","","","","","",""
"","","","","","html-keyboard-response","154","292656","0.0-7.39-1.39","65577242d6ad4e548cb8929e","65801700b94e79b0c0532bf4","65801a3b4a565b35c08c45a5","1773","./stimuli//pack_noise_shapes_3/cat_2/diff_4/ex_2_4_12.mp4","arrowright","response","ArrowRight","12","2","4","test","true","",""
"","","","","","html-keyboard-response","155","294163","0.0-7.39-2.39","65577242d6ad4e548cb8929e","65801700b94e79b0c0532bf4","65801a3b4a565b35c08c45a5","null","<p> <font color=""green"" size=""5vw""> Correct match! </font> <br> <br> <font color=""green"" size=""8vw""> + $0.12 </font> </p>","null","feedback","","","","","","","2.24","0.12"
"","","","","","html-keyboard-response","156","294448","0.0-7.40-0.40","65577242d6ad4e548cb8929e","65801700b94e79b0c0532bf4","65801a3b4a565b35c08c45a5","283","
            
        <div style=""text-align: center; position: fixed; top: 5vh; left: 40vw;"">
            <div style=""margin:0 auto; width: 20vw; top: 8vh; font-size: 2vw""> 
            <font color=""green""> Bonus : $2.24 </font>
            </div>
        </div>
    
            <p> Please press any key to continue to the next movie.</p>
            <p> Remember your choices : <p>
            <div class=""container"">
                <div class=""photos"">
                    <img class=""image"" src=./stimuli//pack_noise_shapes_3/cat_1/prototype_1.png>
                    <span class=""word""><b>Press left arrow key if the shape looks like this one.</b></span>
                </div>
                <div class=""photos"">
                    <img class=""image"" src=./stimuli//pack_noise_shapes_3/cat_2/prototype_2.png>
                    <div class=""word""><b>Press right arrow key if the shape looks like this one.</b></div>
                </div>
            </div>
        ","arrowright","ITI","","","","","","","",""
"","","","","","html-keyboard-response","157","296512","0.0-7.40-1.40","65577242d6ad4e548cb8929e","65801700b94e79b0c0532bf4","65801a3b4a565b35c08c45a5","2061","./stimuli//pack_noise_shapes_3/cat_2/diff_5/ex_2_5_10.mp4","arrowright","response","ArrowRight","10","2","5","test","true","",""
"","","","","","html-keyboard-response","158","298017","0.0-7.40-2.40","65577242d6ad4e548cb8929e","65801700b94e79b0c0532bf4","65801a3b4a565b35c08c45a5","null","<p> <font color=""green"" size=""5vw""> Correct match! </font> <br> <br> <font color=""green"" size=""8vw""> + $0.12 </font> </p>","null","feedback","","","","","","","2.36","0.12"
"","","","","","html-keyboard-response","159","298335","0.0-7.41-0.41","65577242d6ad4e548cb8929e","65801700b94e79b0c0532bf4","65801a3b4a565b35c08c45a5","317","
            
        <div style=""text-align: center; position: fixed; top: 5vh; left: 40vw;"">
            <div style=""margin:0 auto; width: 20vw; top: 8vh; font-size: 2vw""> 
            <font color=""green""> Bonus : $2.36 </font>
            </div>
        </div>
    
            <p> Please press any key to continue to the next movie.</p>
            <p> Remember your choices : <p>
            <div class=""container"">
                <div class=""photos"">
                    <img class=""image"" src=./stimuli//pack_noise_shapes_3/cat_1/prototype_1.png>
                    <span class=""word""><b>Press left arrow key if the shape looks like this one.</b></span>
                </div>
                <div class=""photos"">
                    <img class=""image"" src=./stimuli//pack_noise_shapes_3/cat_2/prototype_2.png>
                    <div class=""word""><b>Press right arrow key if the shape looks like this one.</b></div>
                </div>
            </div>
        ","arrowright","ITI","","","","","","","",""
"","","","","","html-keyboard-response","160","300462","0.0-7.41-1.41","65577242d6ad4e548cb8929e","65801700b94e79b0c0532bf4","65801a3b4a565b35c08c45a5","2127","./stimuli//pack_noise_shapes_3/cat_1/diff_5/ex_1_5_5.mp4","arrowleft","response","ArrowLeft","5","1","5","test","true","",""
"","","","","","html-keyboard-response","161","301969","0.0-7.41-2.41","65577242d6ad4e548cb8929e","65801700b94e79b0c0532bf4","65801a3b4a565b35c08c45a5","null","<p> <font color=""green"" size=""5vw""> Correct match! </font> <br> <br> <font color=""green"" size=""8vw""> + $0.12 </font> </p>","null","feedback","","","","","","","2.48","0.12"
"","","","","","html-keyboard-response","162","302542","0.0-7.42-0.42","65577242d6ad4e548cb8929e","65801700b94e79b0c0532bf4","65801a3b4a565b35c08c45a5","572","
            
        <div style=""text-align: center; position: fixed; top: 5vh; left: 40vw;"">
            <div style=""margin:0 auto; width: 20vw; top: 8vh; font-size: 2vw""> 
            <font color=""green""> Bonus : $2.48 </font>
            </div>
        </div>
    
            <p> Please press any key to continue to the next movie.</p>
            <p> Remember your choices : <p>
            <div class=""container"">
                <div class=""photos"">
                    <img class=""image"" src=./stimuli//pack_noise_shapes_3/cat_1/prototype_1.png>
                    <span class=""word""><b>Press left arrow key if the shape looks like this one.</b></span>
                </div>
                <div class=""photos"">
                    <img class=""image"" src=./stimuli//pack_noise_shapes_3/cat_2/prototype_2.png>
                    <div class=""word""><b>Press right arrow key if the shape looks like this one.</b></div>
                </div>
            </div>
        ","arrowleft","ITI","","","","","","","",""
"","","","","","html-keyboard-response","163","304878","0.0-7.42-1.42","65577242d6ad4e548cb8929e","65801700b94e79b0c0532bf4","65801a3b4a565b35c08c45a5","2335","./stimuli//pack_noise_shapes_3/cat_1/diff_5/ex_1_5_8.mp4","arrowleft","response","ArrowLeft","8","1","5","test","true","",""
"","","","","","html-keyboard-response","164","306390","0.0-7.42-2.42","65577242d6ad4e548cb8929e","65801700b94e79b0c0532bf4","65801a3b4a565b35c08c45a5","null","<p> <font color=""green"" size=""5vw""> Correct match! </font> <br> <br> <font color=""green"" size=""8vw""> + $0.11 </font> </p>","null","feedback","","","","","","","2.59","0.11"
"","","","","","html-keyboard-response","165","306831","0.0-7.43-0.43","65577242d6ad4e548cb8929e","65801700b94e79b0c0532bf4","65801a3b4a565b35c08c45a5","439","
            
        <div style=""text-align: center; position: fixed; top: 5vh; left: 40vw;"">
            <div style=""margin:0 auto; width: 20vw; top: 8vh; font-size: 2vw""> 
            <font color=""green""> Bonus : $2.59 </font>
            </div>
        </div>
    
